"Time (s)","Gyroscope x (rad/s)","Gyroscope y (rad/s)","Gyroscope z (rad/s)","Absolute (rad/s)"
-1.086791664E-3,1.546567585E-2,-1.596708968E-2,1.786669251E-3,2.230083562E-2
8.920208333E-3,2.772517502E-3,-1.456120797E-2,-4.892679863E-4,1.483088041E-2
1.892820834E-2,7.464741357E-3,3.915537149E-3,9.320611134E-4,8.480715336E-3
2.893520833E-2,7.896705531E-3,-5.052125081E-3,1.383999363E-3,9.476147968E-3
3.894320833E-2,7.652227767E-3,-9.828149341E-4,-1.840698533E-4,7.717279100E-3
4.895020834E-2,7.902830839E-3,6.515670102E-4,2.071484923E-4,7.932350556E-3
5.895820833E-2,6.622649729E-3,-2.268056385E-3,-5.377375055E-4,7.020878209E-3
6.896520834E-2,5.021557212E-3,1.019083196E-3,-2.578392159E-4,5.130404317E-3
7.897320834E-2,3.748832271E-3,-1.894947607E-3,-1.509791240E-3,4.463635224E-3
8.898020833E-2,4.273741506E-3,-5.953249056E-4,3.554867581E-4,4.329624584E-3
9.898820834E-2,3.080645343E-3,-7.324777544E-4,-5.308133550E-4,3.210710546E-3
1.089952083E-1,3.861484118E-3,-2.220119350E-3,2.498831600E-5,4.454280406E-3
1.190032083E-1,4.432732239E-3,-9.721622337E-4,4.176632501E-5,4.538277089E-3
1.290102083E-1,5.192798562E-3,-5.356702022E-4,8.228714578E-4,5.284810017E-3
1.390182083E-1,4.357897211E-3,-1.924508600E-3,1.427409239E-3,4.973177917E-3
1.490252083E-1,4.604505841E-3,-4.866679665E-4,1.407168806E-3,4.839260666E-3
1.590332083E-1,5.056444556E-3,-5.638997536E-4,-3.622351214E-4,5.100669442E-3
1.690402083E-1,2.190883271E-3,-6.869377103E-4,-6.289593875E-5,2.296912890E-3
1.790482083E-1,1.823100611E-3,1.106168842E-3,-6.341440603E-4,2.224734598E-3
1.890552083E-1,-8.239108138E-5,-1.291475259E-3,-1.784770284E-4,1.306350138E-3
1.990622083E-1,-2.394281328E-3,-5.383333191E-4,1.142184250E-3,2.706837768E-3
2.090702083E-1,-2.334360033E-3,4.299918655E-4,-1.087946584E-3,2.611083595E-3
2.190772083E-1,-5.092862062E-3,-4.507151898E-4,-1.784629654E-3,5.415283111E-3
2.290852083E-1,-4.331464414E-3,-6.334080826E-4,-1.123058610E-5,4.377546789E-3
2.390922083E-1,-1.375355874E-3,-1.147131901E-3,-8.930033073E-4,2.001242186E-3
2.491002083E-1,-2.268047072E-3,-1.702401089E-3,1.230867580E-3,3.091478932E-3
2.591072083E-1,9.124702774E-5,4.789943341E-4,3.086151555E-4,5.770657730E-4
2.691152083E-1,1.030810177E-3,5.839227233E-4,1.662832219E-3,2.041701829E-3
2.791222083E-1,6.015086547E-4,-4.557752982E-4,2.281875350E-4,7.884245907E-4
2.891302083E-1,4.837010056E-5,4.502322990E-4,-6.129802205E-5,4.569532112E-4
2.991372083E-1,1.342932694E-3,4.196958616E-5,-9.478642605E-4,1.644285961E-3
3.091452083E-1,2.490755171E-3,-1.565514598E-3,5.443049595E-4,2.991816366E-3
3.191522083E-1,-6.520411698E-4,1.142920228E-3,4.098149948E-4,1.378177298E-3
3.291602083E-1,-3.093094565E-3,-1.288812142E-3,-6.256217603E-4,3.408764191E-3
3.391672083E-1,-2.745019272E-3,5.722048227E-4,-4.759521689E-4,2.844130734E-3
3.491752083E-1,-4.790327046E-3,-4.102352541E-4,-4.980564117E-4,4.833589387E-3
3.591822083E-1,-4.017477855E-3,1.250600908E-4,-1.143606612E-3,4.178947765E-3
3.691902083E-1,-4.119210411E-3,3.722014371E-4,5.363151431E-4,4.170618929E-3
3.791972083E-1,-5.182877183E-3,9.485094342E-4,-1.181956148E-3,5.399898738E-3
3.892052083E-1,-4.688061774E-3,-1.246467931E-3,-1.554266084E-3,5.093853999E-3
3.992122083E-1,-2.544217277E-3,-9.962124750E-6,1.413294114E-3,2.910419394E-3
4.092202083E-1,-6.140550133E-3,5.490353797E-4,-1.059983391E-3,6.255506420E-3
4.192272083E-1,-6.430301350E-3,1.904317876E-3,-1.382758608E-3,6.847424581E-3
4.292352083E-1,-5.222025327E-3,6.094889250E-4,-1.659602858E-4,5.260092023E-3
4.392422083E-1,-7.032708731E-3,-8.091768250E-4,-1.248535234E-3,7.188365562E-3
4.492502083E-1,-7.286774460E-3,-8.187640924E-4,-2.278113272E-3,7.678362895E-3
4.592572083E-1,-5.358645692E-3,6.121525075E-4,2.203986980E-3,5.826437416E-3
4.692642083E-1,-6.417785306E-3,-1.466711285E-3,1.376401633E-4,6.584690960E-3
4.792722083E-1,-6.067312788E-3,-6.142333150E-4,2.058171667E-4,6.101797091E-3
4.892792083E-1,-5.149321165E-3,2.683380153E-4,-9.872792289E-4,5.249974669E-3
4.992872083E-1,-2.445946448E-3,5.905807484E-4,-1.027226448E-3,2.717836239E-3
5.092942083E-1,-1.899465802E-3,-9.386064485E-4,-5.597178824E-5,2.119453996E-3
5.193022083E-1,-1.967110205E-3,1.476614503E-3,9.717419744E-4,2.644654120E-3
5.293092083E-1,-4.568315344E-4,-2.786749974E-4,-3.140319604E-4,6.204602140E-4
5.393172083E-1,1.099253539E-3,7.586262655E-4,-6.234913599E-4,1.473978843E-3
5.493242083E-1,1.712845755E-3,8.121558931E-4,-1.006986480E-3,2.146499370E-3
5.593322083E-1,2.208193764E-3,1.253175316E-3,-1.191010932E-3,2.804474124E-3
5.693392083E-1,5.719475448E-4,-1.934538595E-4,2.367096022E-4,6.485212607E-4
5.793472083E-1,2.295012819E-3,1.110163284E-3,1.741251908E-4,2.555360236E-3
5.893542083E-1,1.131211407E-3,1.352244755E-3,-1.806076616E-4,1.772237076E-3
5.993622083E-1,2.051333431E-3,3.200036008E-4,-1.867329702E-4,2.084524011E-3
6.093692083E-1,6.792729255E-4,1.115755877E-3,3.443015739E-4,1.350876181E-3
6.193772083E-1,-1.369857928E-4,8.241396863E-4,1.251107547E-3,1.504407334E-3
6.293842083E-1,-9.231510339E-4,1.141412649E-4,6.227265112E-5,9.322628078E-4
6.393922083E-1,-2.168977633E-3,-5.183594767E-4,-4.913986195E-4,2.283557121E-3
6.493992083E-1,-4.309989745E-4,-1.165507827E-3,-2.535781823E-4,1.268254905E-3
6.594072083E-1,-7.077014307E-4,1.034529647E-3,-6.751567125E-4,1.423702740E-3
6.694142083E-1,-1.014763839E-3,-1.483222935E-3,-5.992564838E-4,1.894413961E-3
6.794222083E-1,-2.844621427E-3,5.381165538E-4,4.942375235E-4,2.936956115E-3
6.894292083E-1,-9.319394594E-4,1.325171907E-4,8.215396665E-4,1.249399610E-3
6.994372083E-1,-8.629636141E-4,-3.828047775E-4,1.930338331E-4,9.635910738E-4
7.094442083E-1,2.353240270E-4,-8.669674862E-4,-1.193407690E-3,1.493730878E-3
7.194522083E-1,-6.344796857E-4,-9.890086949E-4,1.321618911E-4,1.182442149E-3
7.294592083E-1,-1.032355824E-3,-3.210878931E-4,9.478882421E-4,1.437827563E-3
7.394672083E-1,-1.178263919E-4,-1.194865908E-4,-6.476116832E-4,6.689999972E-4
7.494742083E-1,-1.067775884E-3,-9.216305334E-4,6.531644613E-5,1.412024935E-3
7.594822083E-1,-7.465988165E-4,-4.944596440E-4,6.645277608E-4,1.115122091E-3
7.694892083E-1,2.558151027E-4,1.060832292E-4,9.148649406E-4,9.558623739E-4
7.794962083E-1,4.025552189E-4,-9.634422604E-4,5.976825487E-4,1.203119330E-3
7.895042083E-1,2.048921306E-3,-4.624971189E-5,-2.196417190E-4,2.061179283E-3
7.995117083E-1,3.056661692E-3,-1.164510846E-3,9.542794432E-4,3.407332602E-3
8.095197083E-1,3.027366940E-3,3.343159333E-4,1.195561839E-3,3.272015563E-3
8.195267083E-1,2.491006162E-3,1.891739666E-4,-9.181888308E-4,2.661572696E-3
8.295347083E-1,3.062787000E-3,-8.364093956E-4,-2.199701965E-3,3.862503543E-3
8.395417083E-1,1.643055701E-3,-1.639618771E-3,-1.782917418E-3,2.926905579E-3
8.495497083E-1,-1.343380427E-4,1.422749832E-3,3.667862620E-4,1.475396881E-3
8.595567083E-1,-2.142095007E-3,-1.082219183E-3,1.651228638E-3,2.913129828E-3
8.695647083E-1,-2.744768281E-3,-5.181618035E-4,-4.659842234E-4,2.831852020E-3
8.795717083E-1,-4.207110032E-3,4.341844469E-4,1.428143587E-4,4.231865652E-3
8.895797083E-1,-3.862496931E-3,2.773245797E-4,1.041365089E-3,4.010016548E-3
8.995867083E-1,-3.271807916E-3,-1.001259079E-3,3.124575596E-4,3.435822538E-3
9.095947083E-1,-2.907221206E-3,-1.079556067E-3,-4.223084543E-4,3.129811635E-3
9.196017083E-1,-5.015878705E-4,-1.405254006E-4,-3.293640912E-4,6.162941543E-4
9.296097083E-1,-1.615854562E-3,-1.542946091E-3,5.386490375E-5,2.234853470E-3
9.396167083E-1,-1.069906517E-3,-1.288075000E-4,8.475757204E-5,1.080960301E-3
9.496247083E-1,3.106761724E-4,-1.327496488E-3,1.056278823E-3,1.724671436E-3
9.596317083E-1,1.669420977E-3,-3.905897029E-5,-1.443364192E-3,2.207213672E-3
9.696397083E-1,7.608439773E-6,-7.794122212E-5,-2.183456905E-3,2.184860815E-3
9.796467083E-1,4.025552189E-4,8.235387504E-4,3.121916670E-4,9.683648149E-4
9.896547083E-1,6.571534323E-4,8.797366172E-5,-8.248910308E-5,6.681275708E-4
9.996617083E-1,8.006978314E-4,7.833251730E-4,-1.897433307E-3,2.203399305E-3
1.009669708E0,9.764664574E-4,-1.762118191E-4,-7.083318196E-4,1.219127276E-3
1.019676708E0,3.892394016E-4,-2.957878169E-4,1.631787745E-3,1.703446210E-3
1.029684708E0,8.971042698E-4,-6.035901606E-6,3.715797793E-4,9.710324585E-4
1.039691708E0,-6.579154870E-4,-2.214855049E-4,-1.145090209E-3,1.339081851E-3
1.049699708E0,2.363973297E-3,9.037042037E-5,3.561337944E-4,2.392356128E-3
1.059706708E0,1.453971257E-3,1.412369311E-4,6.743811537E-4,1.608965577E-3
1.069714708E0,2.638045698E-4,1.056299079E-3,1.113536535E-3,1.557345244E-3
1.079721708E0,1.891794964E-3,-5.977903493E-4,-1.040960662E-3,2.240500075E-3
1.089729708E0,6.768608000E-4,1.220616046E-3,2.778365742E-4,1.423108301E-3
1.099736708E0,-6.920039887E-4,-1.345339464E-3,-1.298931893E-4,1.518446586E-3
1.109743708E0,-1.082157134E-3,4.701372236E-4,-1.602088800E-3,1.989668715E-3
1.119751708E0,-1.698146225E-3,4.989048466E-5,1.683805604E-4,1.707202880E-3
1.129758708E0,-1.416117535E-3,-1.514982898E-3,-4.520476796E-5,2.074272288E-3
1.139766708E0,-1.958337147E-3,-1.000460237E-3,9.585407097E-4,2.398917539E-3
1.149773708E0,-2.554618753E-3,-5.125692114E-4,2.072628122E-4,2.613763961E-3
1.159781708E0,-8.139767451E-4,-8.675684221E-4,-2.063259017E-4,1.207395331E-3
1.169788708E0,-2.555119572E-4,-1.192740398E-3,-1.054010121E-3,1.612095950E-3
1.179796708E0,6.885787006E-4,-9.232284501E-4,5.217820872E-4,1.264416049E-3
1.189803708E0,7.626146544E-4,1.521557570E-4,-3.346903250E-4,8.466109491E-4
1.199811708E0,8.473031921E-4,4.059551284E-4,9.135331493E-4,1.310444612E-3
1.209818708E0,7.085524267E-4,5.572228692E-4,1.225655666E-3,1.521438687E-3
1.219826708E0,2.430552384E-3,1.531939488E-3,1.315404428E-3,3.159859537E-3
1.229833708E0,2.113636117E-3,2.741287462E-4,2.639882732E-4,2.147625204E-3
1.239841708E0,1.313888934E-3,1.021678094E-3,1.263029408E-4,1.669156281E-3
1.249848708E0,-2.653655829E-4,1.106103882E-4,-1.185570378E-3,1.219930601E-3
1.259856708E0,8.137472905E-4,3.806552850E-4,1.047311816E-4,9.044621160E-4
1.269863708E0,4.981626989E-4,9.676674381E-6,7.410487160E-5,5.037372774E-4
1.279871708E0,-1.328233047E-3,-3.714216873E-4,1.926154364E-4,1.392572370E-3
1.289878708E0,4.329152871E-4,7.396494038E-4,-2.875523642E-4,9.039818851E-4
1.299886708E0,-2.477120608E-3,-7.695641834E-4,9.015488904E-4,2.746114699E-3
1.309893708E0,-1.459526946E-3,-3.106426448E-6,4.634589422E-4,1.531346710E-3
1.319901708E0,-1.172970864E-3,-1.166907838E-3,-1.376252621E-3,2.152116592E-3
1.329908708E0,-4.129047738E-4,-4.166953731E-4,-1.075049164E-3,1.224686119E-3
1.339916708E0,-1.626240904E-3,-1.121367794E-3,2.418837976E-4,1.990133910E-3
1.349923708E0,-1.482962747E-3,-3.586336970E-5,3.268390428E-4,1.518976119E-3
1.359931708E0,-3.399340203E-4,-6.382702850E-4,-8.891604375E-4,1.146102255E-3
1.369938708E0,2.918008249E-5,-1.012444496E-3,-4.458473995E-6,1.012874727E-3
1.379946708E0,1.293478999E-5,8.168807253E-4,7.356342394E-4,1.099372167E-3
1.389953708E0,-6.917376304E-4,4.922416992E-4,-2.047279850E-4,8.733363542E-4
1.399961708E0,1.919225440E-3,1.542059705E-3,1.089922152E-4,2.464397234E-3
1.409968708E0,1.543486724E-4,-1.945877448E-4,-9.845015593E-4,1.015347834E-3
1.419975708E0,-1.652307110E-4,-7.541177329E-4,2.240410540E-4,8.038589035E-4
1.429983708E0,1.563427155E-3,7.092952728E-5,-1.035634428E-3,1.876665696E-3
1.439990708E0,6.534249987E-4,-4.332023673E-5,-1.416110899E-4,6.699959498E-4
1.449998708E0,1.887034159E-4,-2.198878210E-4,1.899523195E-4,3.464700805E-4
1.460005708E0,3.439657157E-4,-8.140341379E-5,-3.014008980E-4,4.645227989E-4
1.470013708E0,2.055579331E-3,-1.091002487E-4,3.207137343E-4,2.083306638E-3
1.480020708E0,2.600761363E-4,-2.422581892E-4,3.284367267E-4,4.839414328E-4
1.490028708E0,1.672084094E-3,-4.784739576E-5,9.273814503E-4,1.912639784E-3
1.500035708E0,5.532901268E-4,9.811981581E-4,3.334966023E-4,1.174776478E-3
1.510043708E0,2.827129792E-4,8.496376686E-4,-1.659612870E-3,1.885769253E-3
1.520050708E0,-1.125832903E-3,-1.366378507E-3,-1.962680835E-3,2.643218873E-3
1.530058708E0,-1.368979574E-3,-1.144537237E-3,-3.721518442E-5,1.784784449E-3
1.540065708E0,-2.162334975E-3,-8.305504452E-4,-9.251991287E-6,2.316374794E-3
1.550073708E0,-1.394545776E-3,-1.881700242E-3,-1.163112465E-4,2.345012159E-3
1.560080708E0,-8.448694134E-4,-8.603779133E-4,7.446890231E-4,1.417256583E-3
1.570088708E0,-2.090163529E-3,4.616216756E-5,-3.429460339E-4,2.118614289E-3
1.580095708E0,-7.295544492E-4,-1.777304336E-3,7.305738982E-4,2.055431492E-3
1.590103708E0,2.254550345E-4,-1.105654985E-3,4.589317832E-4,1.218163084E-3
1.600110708E0,-6.709649460E-4,1.306636259E-3,-9.940890595E-4,1.773613636E-3
1.610118708E0,1.612429274E-3,1.470958814E-4,2.372945426E-3,2.872705233E-3
1.620125708E0,5.271912087E-4,1.768961083E-3,-1.121654408E-3,2.159921872E-3
1.630133708E0,9.160126792E-4,4.600174725E-4,-1.285705250E-3,1.644303285E-3
1.640140708E0,1.218814170E-3,6.616185419E-4,-8.169002831E-5,1.389215727E-3
1.650148708E0,4.321163287E-4,-3.216203768E-4,9.851723444E-4,1.122821774E-3
1.660155708E0,9.684769902E-4,2.342872322E-3,4.605294671E-4,2.576642347E-3
1.670163708E0,1.322943717E-3,1.839002129E-3,1.914615510E-3,2.966118922E-3
1.680170708E0,1.580205048E-3,9.766705334E-4,-1.764986664E-4,1.866034593E-3
1.690178708E0,7.636798546E-4,3.110661637E-3,1.384646399E-3,3.489508331E-3
1.700185708E0,9.093548288E-4,1.284798142E-3,-5.866254214E-4,1.679810065E-3
1.710193708E0,3.122740891E-4,2.443273552E-3,-1.057472313E-3,2.680550027E-3
1.720200708E0,7.320292061E-4,3.798267106E-3,3.705141135E-4,3.885869333E-3
1.730208708E0,3.392129438E-4,3.855258925E-3,-3.623878583E-4,3.887082680E-3
1.740215708E0,5.037962692E-4,4.542354494E-3,-7.501442451E-4,4.631361724E-3
1.750222708E0,-8.818464121E-4,2.442984609E-3,8.373660967E-4,2.728920826E-3
1.760230708E0,1.137894928E-3,2.866160823E-3,8.560083807E-4,3.200380146E-3
1.770237708E0,-4.428229295E-5,2.224871656E-3,3.489423543E-4,2.252504289E-3
1.780245708E0,-1.771739917E-4,3.454789985E-4,2.991412766E-4,4.901345378E-4
1.790252708E0,-4.237826215E-4,-2.346977126E-3,6.931042299E-5,2.385937399E-3
1.800260083E0,-2.081334125E-3,-4.754740745E-3,1.356682274E-3,5.364708574E-3
1.810267083E0,-1.317539602E-3,-4.105994944E-3,1.225122251E-3,4.482859535E-3
1.820275083E0,-1.129520475E-3,-4.610663746E-3,2.978281118E-3,5.603944601E-3
1.830282083E0,2.778135939E-3,-6.557967514E-3,2.533533610E-3,7.559349824E-3
1.840290083E0,-5.838387879E-4,-1.599754207E-2,4.241596907E-2,4.533626200E-2
1.850297083E0,-1.165300142E-2,-3.637392074E-2,3.817794025E-1,3.836852443E-1
1.860305083E0,1.362133073E-3,-5.663678050E-3,6.810547709E-1,6.810796823E-1
1.870312083E0,-6.528280210E-3,-1.201318577E-2,7.881479263E-1,7.882665088E-1
1.880320083E0,-3.566312604E-3,-1.237750705E-2,7.509851456E-1,7.510956065E-1
1.890327083E0,1.575186034E-3,1.136963442E-2,7.185060382E-1,7.185977155E-1
1.900335083E0,1.351466961E-2,4.541894421E-2,7.658790946E-1,7.673436742E-1
1.910342083E0,2.784261014E-3,2.890308760E-2,8.880055547E-1,8.884801662E-1
1.920350083E0,-1.390776481E-3,1.815909706E-2,1.022458673E0,1.022620860E0
1.930357083E0,5.097216461E-3,3.529201075E-2,1.120903254E0,1.121470290E0
1.940365083E0,-3.578296863E-3,1.996525377E-2,1.183366060E0,1.183539880E0
1.950372083E0,-9.333122522E-3,1.009744219E-2,1.207392573E0,1.207470866E0
1.960380083E0,-6.558757741E-5,1.651486196E-2,1.214633226E0,1.214745496E0
1.970387083E0,3.762440290E-3,2.636456303E-2,1.232588291E0,1.232875964E0
1.980395083E0,7.520693354E-3,3.140246123E-2,1.275656581E0,1.276065197E0
1.990402083E0,6.417878438E-3,3.671786562E-2,1.346237898E0,1.346753826E0
2.000410083E0,1.398884691E-3,2.481220663E-2,1.453451395E0,1.453663840E0
2.010417083E0,-9.918349097E-4,2.487825230E-2,1.578685522E0,1.578881848E0
2.020425083E0,-2.133531962E-3,1.826242730E-2,1.697176695E0,1.697276289E0
2.030432083E0,-2.201708965E-3,2.758775093E-2,1.791386604E0,1.791600373E0
2.040440083E0,4.460987169E-3,3.577776998E-2,1.864713550E0,1.865062082E0
2.050447083E0,2.176793991E-3,3.219901398E-2,1.948150873E0,1.948418163E0
2.060454083E0,2.546440810E-3,3.700602055E-2,2.018606424E0,2.018947207E0
2.070462083E0,2.814621199E-3,3.360569477E-2,2.093271494E0,2.093543124E0
2.080469083E0,1.332425326E-2,6.580092013E-2,2.146473408E0,2.147523082E0
2.090477083E0,2.803702140E-3,3.311434388E-2,2.186690807E0,2.186943325E0
2.100484083E0,1.934446394E-3,3.829552233E-2,2.218801498E0,2.219132799E0
2.110492083E0,4.192008171E-3,5.485665426E-2,2.260754824E0,2.261424153E0
2.120499083E0,-2.293588128E-3,3.114200570E-2,2.291048765E0,2.291261559E0
2.130507083E0,8.233756525E-4,5.602471903E-2,2.297155619E0,2.297838851E0
2.140514083E0,2.892651828E-3,4.134643823E-2,2.296063185E0,2.296437250E0
2.150522083E0,-3.704797011E-3,3.260967508E-2,2.293424368E0,2.293659183E0
2.160529083E0,6.561156362E-3,3.614981472E-2,2.297617197E0,2.297910930E0
2.170537083E0,2.206355100E-3,4.464050382E-2,2.334929705E0,2.335357439E0
2.180544083E0,-2.483737655E-3,2.902772464E-2,2.408949137E0,2.409125302E0
2.190552083E0,-4.924923414E-4,4.895668849E-2,2.511516094E0,2.511993251E0
2.200559083E0,1.755748293E-3,4.461094365E-2,2.610222340E0,2.610604122E0
2.210567083E0,3.933148924E-3,4.546475038E-2,2.711221933E0,2.711605961E0
2.220574083E0,-4.434901057E-4,6.730587035E-2,2.830143929E0,2.830944177E0
2.230582083E0,-2.958845813E-3,5.852596089E-2,2.940506935E0,2.941090797E0
2.240589083E0,-5.537449615E-4,6.344854832E-2,3.041947365E0,3.042609044E0
2.250597083E0,-6.176476832E-3,4.852072895E-2,3.122332573E0,3.122715662E0
2.260604083E0,-5.510686431E-3,5.188350379E-2,3.186787128E0,3.187214217E0
2.270612083E0,6.335320417E-3,4.885229468E-2,3.218955040E0,3.219331954E0
2.280619083E0,5.060198717E-3,4.389348626E-2,3.208859921E0,3.209164102E0
2.290627083E0,3.938741516E-3,4.879743233E-2,3.179066181E0,3.179443110E0
2.300634083E0,2.635656856E-3,6.386213750E-2,3.142997980E0,3.143647821E0
2.310642083E0,-7.532026153E-3,3.545099869E-2,3.115604162E0,3.115814950E0
2.320649083E0,5.943835713E-3,3.992670774E-2,3.065886259E0,3.066151990E0
2.330657083E0,-1.245634281E-3,5.083261803E-2,3.019547939E0,3.019976037E0
2.340664083E0,-2.157500479E-3,4.707889259E-2,2.983986139E0,2.984358282E0
2.350672083E0,1.992769539E-3,4.434462637E-2,2.950241804E0,2.950575727E0
2.360679083E0,4.875109065E-3,3.893894330E-2,2.913224220E0,2.913488522E0
2.370687083E0,-4.485636018E-3,4.436113685E-2,2.869926691E0,2.870273026E0
2.380694083E0,7.826956920E-3,6.849763542E-2,2.808785677E0,2.809631678E0
2.390702083E0,-2.388130408E-3,5.107044056E-2,2.753529787E0,2.754004390E0
2.400709083E0,-1.714883256E-3,3.390157223E-2,2.704961538E0,2.705174520E0
2.410717083E0,1.192755997E-3,5.283984542E-2,2.681725740E0,2.682246525E0
2.420724083E0,-4.353809170E-3,3.562596813E-2,2.711033583E0,2.711271151E0
2.430731083E0,4.911860451E-3,3.984228522E-2,2.774245739E0,2.774536169E0
2.440739083E0,-8.413799107E-3,2.280684561E-2,2.837718725E0,2.837822846E0
2.450746083E0,-1.410217606E-3,5.352267995E-2,2.890977621E0,2.891473374E0
2.460754083E0,2.668147441E-3,4.113578424E-2,2.917108774E0,2.917400019E0
2.470761083E0,1.374916290E-3,4.378429800E-2,2.933045864E0,2.933372973E0
2.480769083E0,6.797911134E-3,5.255781487E-2,2.934038877E0,2.934517451E0
2.490776083E0,1.926190685E-3,6.069803610E-2,2.930520058E0,2.931149223E0
2.500784083E0,5.229309201E-3,4.844482988E-2,2.920155525E0,2.920562024E0
2.510791083E0,6.892453413E-3,5.981705710E-2,2.920814753E0,2.921435333E0
2.520799083E0,-3.853401635E-3,4.677875713E-2,2.949561119E0,2.949934558E0
2.530806083E0,2.355225850E-3,5.166032910E-2,2.985555887E0,2.986003733E0
2.540814083E0,-1.387580647E-3,4.631190374E-2,3.019076824E0,3.019432329E0
2.550821083E0,-6.234000903E-3,2.736697719E-2,3.041507006E0,3.041636513E0
2.560829083E0,-8.117388934E-3,3.249915317E-2,3.041549683E0,3.041734137E0
2.570836083E0,5.919468822E-4,4.258347675E-2,2.994458437E0,2.994761265E0
2.580844083E0,1.285500452E-2,7.850899547E-2,2.915079594E0,2.916164939E0
2.590851083E0,8.249067701E-3,4.929171503E-2,2.814760447E0,2.815204094E0
2.600859083E0,-1.961225644E-3,2.929164283E-2,2.740588665E0,2.740745898E0
2.610866083E0,4.536621273E-3,4.842751846E-2,2.718853951E0,2.719288990E0
2.620874083E0,9.098083712E-3,5.879200622E-2,2.748553753E0,2.749197521E0
2.630881083E0,-1.553361071E-4,4.390041158E-2,2.806424379E0,2.806767726E0
2.640889083E0,-9.771478362E-3,2.290831134E-2,2.880214214E0,2.880321891E0
2.650896083E0,5.844233092E-3,4.800780490E-2,2.933178902E0,2.933577572E0
2.660904083E0,1.201317925E-2,5.054925755E-2,2.950593948E0,2.951051371E0
2.670911083E0,1.272983570E-2,6.311511993E-2,2.926520824E0,2.927229014E0
2.680919083E0,5.038360599E-3,6.830695271E-2,2.882194281E0,2.883007994E0
2.690926083E0,-9.509423748E-3,4.554091766E-2,2.832056999E0,2.832439099E0
2.700934083E0,1.382106799E-3,3.902283311E-2,2.782895088E0,2.783169015E0
2.710941083E0,5.555546377E-3,4.441307113E-2,2.737863302E0,2.738229144E0
2.720949083E0,-5.560456309E-3,2.356379665E-2,2.714477539E0,2.714585508E0
2.730956083E0,-5.651003681E-3,4.534526169E-2,2.765759706E0,2.766137177E0
2.740964083E0,4.579262808E-3,5.142339319E-2,2.870927811E0,2.871391967E0
2.750971083E0,1.268953783E-3,4.716233164E-2,2.985431671E0,2.985804441E0
2.760979083E0,1.008268539E-2,6.886842847E-2,3.023069382E0,3.023870534E0
2.770986083E0,6.186098326E-4,4.831414670E-2,3.002989769E0,3.003378463E0
2.780994083E0,3.235315671E-4,5.179437250E-2,2.998205185E0,2.998652546E0
2.791001083E0,1.093862578E-2,5.731510371E-2,3.016464949E0,3.017029244E0
2.801008125E0,3.542228136E-3,4.342804849E-2,3.049379110E0,3.049690394E0
2.811016125E0,1.449421141E-2,7.024235278E-2,3.066591501E0,3.067430114E0
2.821023125E0,6.530827377E-3,6.138547510E-2,3.080368519E0,3.080987024E0
2.831031125E0,7.344956044E-3,6.675787270E-2,3.107901573E0,3.108627149E0
2.841038125E0,7.665866986E-3,8.943122625E-2,3.180458784E0,3.181725128E0
2.851046125E0,1.196101308E-2,1.021949574E-1,3.249243975E0,3.250872695E0
2.861053125E0,-1.596862264E-2,2.216563746E-2,3.310163975E0,3.310276703E0
2.871061125E0,-7.973280735E-3,3.948310763E-2,3.384260178E0,3.384499880E0
2.881068125E0,4.626933485E-3,5.930741131E-2,3.471281767E0,3.471791451E0
2.891076125E0,-4.386534914E-3,5.757316202E-2,3.528577328E0,3.529049712E0
2.901083125E0,-7.079256698E-3,6.421402097E-2,3.541551113E0,3.542140291E0
2.911091125E0,7.191824261E-3,7.518997043E-2,3.548531771E0,3.549335569E0
2.921098125E0,-4.278144334E-3,3.923223913E-2,3.583274364E0,3.583491683E0
2.931106125E0,4.580328241E-3,5.490867049E-2,3.615995646E0,3.616415414E0
2.941113125E0,-4.493178567E-4,5.602799356E-2,3.650943518E0,3.651373428E0
2.951121125E0,-1.019275840E-2,3.876804560E-2,3.688215256E0,3.688433086E0
2.961128125E0,2.626100555E-3,6.456156075E-2,3.718801022E0,3.719362328E0
2.971136125E0,-7.780467160E-3,5.718327314E-2,3.714756012E0,3.715204260E0
2.981143125E0,1.410858613E-2,9.155242890E-2,3.684762001E0,3.685926193E0
2.991151125E0,-6.576452404E-3,5.260077119E-2,3.651044369E0,3.651429182E0
3.001158125E0,4.151293077E-3,6.167895347E-2,3.627601147E0,3.628127838E0
3.011166125E0,1.214891672E-3,6.150212139E-2,3.648806334E0,3.649324821E0
3.021173125E0,1.466225740E-2,1.096709818E-1,3.723117113E0,3.724760898E0
3.031181125E0,-6.497089751E-3,3.158204257E-2,3.827980280E0,3.828116072E0
3.041188125E0,-3.110081889E-3,3.071278520E-2,3.962365866E0,3.962486114E0
3.051196125E0,-8.642381290E-4,7.329007238E-2,4.082102299E0,4.082760262E0
3.061203125E0,4.782994743E-3,7.764300704E-2,4.184887409E0,4.185610343E0
3.071211125E0,4.936659243E-3,8.049445599E-2,4.251250267E0,4.252015118E0
3.081218125E0,-3.201161977E-3,4.846221954E-2,4.277296066E0,4.277571796E0
3.091226125E0,-5.107718986E-3,4.246371984E-2,4.256536484E0,4.256751354E0
3.101233125E0,-2.524719108E-3,6.513520330E-2,4.211144447E0,4.211648908E0
3.111241125E0,-3.643246833E-3,4.364216328E-2,4.200165272E0,4.200393579E0
3.121248125E0,8.893317543E-3,8.663703501E-2,4.218479633E0,4.219378566E0
3.131256125E0,1.261934638E-2,1.026823148E-1,4.257875919E0,4.259132570E0
3.141263125E0,-2.584374044E-3,6.879865378E-2,4.313114643E0,4.313664087E0
3.151271125E0,1.654579537E-3,6.318178028E-2,4.359334946E0,4.359793096E0
3.161278125E0,1.134555601E-2,1.257093400E-1,4.401677132E0,4.403486475E0
3.171286125E0,4.921212792E-3,8.206439018E-2,4.491982937E0,4.492735190E0
3.181293125E0,-7.150629535E-3,6.022460014E-2,4.593633175E0,4.594033509E0
3.191300125E0,-5.367377307E-3,5.907997489E-2,4.655354500E0,4.655732463E0
3.201308125E0,-9.509391151E-3,3.050958551E-2,4.671190739E0,4.671300052E0
3.211315125E0,-6.792434491E-3,7.688986510E-2,4.615884304E0,4.616529659E0
3.221323125E0,-4.414231982E-3,5.655396730E-2,4.483591557E0,4.483950388E0
3.231330125E0,-5.900542252E-3,5.387189984E-2,4.342857838E0,4.343195966E0
3.241338125E0,1.045126654E-2,8.352699876E-2,4.243187428E0,4.244022330E0
3.251345125E0,4.928403534E-3,4.043012857E-2,4.170018196E0,4.170217098E0
3.261353125E0,-1.039915346E-2,-4.917385522E-4,4.147115707E0,4.147128775E0
3.271360125E0,-4.900258500E-3,1.918023266E-2,4.149220467E0,4.149267691E0
3.281368125E0,5.307255778E-4,4.847047478E-2,4.177475929E0,4.177757150E0
3.291375125E0,5.167513713E-2,1.532970369E-1,4.222056866E0,4.225154965E0
3.301383125E0,4.079505801E-2,1.770090163E-1,4.362469196E0,4.366249411E0
3.311390125E0,-6.448354572E-3,4.362379014E-2,4.615113258E0,4.615323933E0
3.321398125E0,2.450370230E-2,1.551455259E-1,4.833782196E0,4.836333413E0
3.331405125E0,-5.775373429E-3,7.787976414E-2,4.997671604E0,4.998281712E0
3.341413125E0,-2.533123270E-2,-9.623193182E-4,5.107709408E0,5.107772312E0
3.351420125E0,3.109464422E-3,6.369683146E-2,5.163929939E0,5.164323709E0
3.361428125E0,7.462135050E-3,1.450343132E-1,5.174158096E0,5.176195769E0
3.371435125E0,2.469118871E-2,1.328700483E-1,5.185947895E0,5.187708519E0
3.381443125E0,-2.235568315E-2,-1.095316745E-2,5.213021755E0,5.213081197E0
3.391450125E0,-1.851220801E-2,-9.225841612E-3,5.237441063E0,5.237481905E0
3.401458125E0,-5.370040424E-3,7.011798024E-2,5.261356354E0,5.261826304E0
3.411465125E0,3.709060326E-2,2.165654749E-1,5.247632980E0,5.252230785E0
3.421473125E0,4.217297956E-2,2.094995826E-1,5.285841942E0,5.290160080E0
3.431480125E0,4.873009864E-3,1.118425205E-1,5.268671036E0,5.269860243E0
3.441488125E0,-5.627683131E-4,5.999530852E-2,5.103494167E0,5.103846831E0
3.451495125E0,1.204303838E-2,5.754785985E-2,4.963364124E0,4.963712343E0
3.461503125E0,2.906531561E-3,1.013664454E-1,5.050071239E0,5.051089301E0
3.471510125E0,-4.877836909E-5,9.361638129E-2,5.066039562E0,5.066904467E0
3.481518125E0,-4.764171317E-3,6.297565252E-2,4.942811012E0,4.943214474E0
3.491525125E0,4.407222848E-3,7.053955644E-2,4.698976040E0,4.699507535E0
3.501533125E0,-1.405392657E-3,6.167656183E-2,4.428236485E0,4.428666203E0
3.511540125E0,3.941968549E-3,6.665374339E-2,4.175774574E0,4.176308365E0
3.521548125E0,-1.582188345E-2,6.166164577E-2,3.925809860E0,3.926325961E0
3.531555125E0,1.260017138E-2,7.516307384E-2,3.653257847E0,3.654052702E0
3.541563125E0,-2.125739492E-2,4.877834022E-2,3.410086870E0,3.410501967E0
3.551570125E0,9.858597768E-4,-1.661265269E-2,3.118789673E0,3.118834073E0
3.561578125E0,7.633110043E-3,5.445779860E-2,2.845731497E0,2.846262755E0
3.571585125E0,-8.861711249E-3,5.505540967E-2,2.626947165E0,2.627538969E0
3.581593125E0,-6.502682343E-3,5.535128713E-2,2.561137438E0,2.561743747E0
3.591600125E0,2.337265760E-2,6.108746678E-2,2.778459072E0,2.779228809E0
3.601608125E0,-1.479363535E-2,2.536489256E-2,2.967165947E0,2.967311239E0
3.611615125E0,-2.830982674E-3,4.361340404E-2,2.863615274E0,2.863948775E0
3.621623125E0,1.885939762E-2,6.781381369E-2,2.598208189E0,2.599161439E0
3.631630125E0,-1.098851115E-2,3.655203432E-2,2.336375475E0,2.336687219E0
3.641638125E0,-3.089309204E-3,3.116099723E-2,2.039007664E0,2.039248098E0
3.651645125E0,9.304659907E-4,2.290599607E-2,1.731414199E0,1.731565961E0
3.661653125E0,7.628316060E-3,5.679285526E-2,1.477643728E0,1.478754411E0
3.671660125E0,-5.305059254E-3,5.767755210E-3,1.322979569E0,1.323002778E0
3.681668125E0,3.431174206E-3,1.716821454E-2,1.158976793E0,1.159109023E0
3.691675125E0,6.690084469E-3,4.510317743E-2,1.006545424E0,1.007577662E0
3.701683125E0,-6.333571859E-3,-1.566856867E-3,8.421839476E-1,8.422092203E-1
3.711690125E0,6.510054693E-3,1.315776072E-2,6.638118029E-1,6.639741088E-1
3.721698125E0,2.963780891E-3,1.879360713E-2,4.874318242E-1,4.878030001E-1
3.731705125E0,-5.102401599E-3,-1.859739423E-3,2.861583531E-1,2.862098813E-1
3.741712125E0,5.428003613E-3,9.583864361E-3,1.790933684E-2,2.102517598E-2
3.751720125E0,-1.059250813E-2,-2.429580502E-2,1.678168308E-3,2.655755296E-2
3.761727125E0,1.799979480E-3,1.075592078E-2,-2.060180996E-4,1.090743790E-2
3.771735125E0,1.054101158E-4,-4.268302117E-3,-4.925741814E-4,4.297923170E-3
3.781742125E0,-1.656537293E-3,-6.698969286E-3,-1.014287351E-3,6.974889542E-3
3.791750125E0,-1.280232682E-3,4.706816748E-3,-7.940439973E-4,4.942026455E-3
3.801757583E0,-1.281564240E-3,-4.202522337E-3,-8.646177594E-4,4.477852696E-3
3.811765583E0,1.017809147E-3,8.034219500E-4,1.021699049E-3,1.650845612E-3
3.821772583E0,4.976937780E-4,2.802124014E-3,-4.638121463E-4,2.883525584E-3
3.831780583E0,-4.852062557E-5,-3.330336884E-3,-5.658110604E-4,3.378407934E-3
3.841787583E0,1.412489568E-3,2.729153493E-3,-8.638189174E-4,3.192113515E-3
3.851795583E0,2.846408170E-4,1.786660636E-3,1.058450900E-3,2.096066538E-3
3.861802583E0,-3.025861224E-4,-1.447215676E-3,1.745279878E-3,2.287355117E-3
3.871810583E0,2.012499841E-3,2.790917642E-5,-6.683429237E-4,2.120758543E-3
3.881817583E0,-1.960598165E-4,1.393844606E-3,4.262165166E-4,1.470681052E-3
3.891825583E0,-4.764905898E-4,-1.100205816E-3,-3.442361485E-4,1.247395144E-3
3.901832583E0,1.621354604E-4,-8.394359611E-5,-9.839273989E-4,1.000723519E-3
3.911840583E0,-1.009921660E-3,-5.606494378E-4,1.298065763E-4,1.162376573E-3
3.921847583E0,-1.107127056E-3,-4.009176511E-3,-1.070480095E-3,4.294782212E-3
3.931855583E0,1.566686668E-3,1.421275316E-3,5.607060157E-4,2.188360545E-3
3.941862583E0,-1.121508074E-3,1.833266346E-3,1.259253360E-3,2.490856254E-3
3.951870583E0,1.738533610E-4,-7.768981159E-4,-1.449181698E-3,1.653457973E-3
3.961877583E0,1.966160722E-3,1.180258812E-3,2.856012434E-4,2.310923391E-3
3.971885583E0,2.309442265E-3,2.040726366E-3,1.652264036E-4,3.086322640E-3
3.981892583E0,1.237859251E-4,-1.707626507E-4,8.240924217E-4,8.506533710E-4
3.991900583E0,6.002254086E-4,7.642733399E-4,-7.394491695E-4,1.221134453E-3
4.001907583E0,7.052277215E-5,1.480176579E-4,-2.627433278E-4,3.097042859E-4
4.011915583E0,-7.292245282E-4,-3.537216689E-4,8.714967407E-4,1.190123523E-3
4.021922583E0,5.504243309E-4,-1.188090071E-3,-3.940372262E-4,1.367402756E-3
4.031930583E0,1.962239621E-4,5.544160958E-4,-8.297304157E-4,1.017021934E-3
4.041937583E0,-8.807583945E-4,-1.599015901E-3,9.652399458E-4,2.065012192E-3
4.051945583E0,-9.033223614E-5,-1.675448613E-3,1.497073565E-3,2.248670102E-3
4.061952583E0,1.294245245E-3,1.571819000E-2,-2.374630189E-3,1.594915158E-2
4.071960583E0,1.220742008E-3,-2.192900749E-3,-8.403831162E-4,2.646746782E-3
4.081967583E0,3.234890755E-3,-3.089054488E-3,1.468577422E-3,4.707812175E-3
4.091975583E0,3.194410820E-3,5.767820403E-3,-3.213330638E-4,6.601156537E-3
4.101982583E0,-5.649075611E-4,5.514866207E-4,-1.906417310E-5,7.896970862E-4
4.111990583E0,3.987766337E-3,-1.417654566E-3,-4.478332121E-4,4.255887617E-3
4.121997583E0,9.973028209E-4,3.667385085E-3,1.229159534E-3,3.994390997E-3
4.132005583E0,-5.145544652E-3,-2.441107295E-3,1.549005043E-3,5.902122603E-3
4.142012583E0,-1.849350170E-3,-3.272546222E-3,5.330089480E-4,3.796544925E-3
4.152020583E0,-3.817958757E-3,-2.294100821E-3,-1.160730608E-5,4.454193797E-3
4.162027583E0,-4.331949167E-3,-4.293868318E-3,1.763922162E-3,6.349370844E-3
4.172035583E0,-1.853078487E-3,-3.010491375E-3,5.631027743E-4,3.579670786E-3
4.182042583E0,-1.212854520E-3,1.802639803E-3,4.467228428E-4,2.218127058E-3
4.192050583E0,-6.200348726E-4,-7.350863889E-4,-1.371683786E-3,1.675204958E-3
4.202057583E0,1.259091543E-3,4.952938762E-4,1.214512158E-3,1.818149422E-3
4.212065583E0,3.496219870E-4,2.963511506E-3,-5.250647664E-4,3.029905772E-3
4.222072583E0,-2.919334220E-4,1.362951705E-3,-2.981633879E-4,1.425399551E-3
4.232080583E0,6.095465505E-4,-2.309500705E-4,7.777535357E-4,1.014783472E-3
4.242087583E0,1.667087781E-3,2.670297632E-3,1.496540848E-3,3.485585406E-3
4.252095583E0,-2.562012058E-3,-6.823558360E-4,-7.479714695E-4,2.754809719E-3
4.262102583E0,-2.591767116E-4,-1.707406482E-3,-5.841869861E-4,1.823097336E-3
4.272110583E0,-1.244279905E-3,-3.758259118E-4,-3.717374057E-5,1.300330529E-3
4.282117583E0,-1.573446556E-3,-9.984730277E-4,1.290678512E-3,2.266833358E-3
4.292125583E0,-3.792851930E-4,-1.618457027E-3,-4.254626110E-4,1.715890101E-3
4.302133583E0,-3.949977690E-4,2.446903381E-4,-9.924494661E-4,1.095834176E-3
4.312140583E0,1.347048674E-4,-5.169734359E-4,4.698922858E-4,7.114813384E-4
4.322148583E0,1.925148070E-3,-2.533206716E-4,1.373502892E-3,2.378418938E-3
4.332155583E0,-2.774794120E-5,3.187749768E-3,5.177594721E-5,3.188290965E-3
4.342163583E0,1.888662810E-3,1.111016842E-3,-3.490298986E-4,2.218834717E-3
4.352170583E0,2.324622124E-3,2.211967716E-3,-5.072215572E-4,3.248683257E-3
4.362178583E0,1.593584544E-3,8.457659278E-4,8.989274502E-4,2.015664224E-3
4.372185583E0,2.026155125E-4,6.177995820E-4,-1.225476153E-3,1.387271124E-3
4.382193583E0,-1.794488984E-3,-9.723741096E-4,-1.495254459E-3,2.530116207E-3
4.392200583E0,-1.111654448E-3,4.149135202E-5,-2.387946006E-3,2.634346840E-3
4.402208583E0,-1.678375178E-3,-1.326041762E-3,1.971847378E-4,2.148071650E-3
4.412215583E0,-2.251487691E-3,-1.578775933E-3,-1.977819018E-3,3.387255281E-3
4.422223583E0,-2.317800187E-3,-2.088771202E-3,5.177594721E-5,3.120551808E-3
4.432230583E0,-1.729241456E-3,-1.070111990E-3,2.454213332E-3,3.187252542E-3
4.442238583E0,-3.132993821E-3,-4.532221705E-3,-1.085463446E-4,5.510759129E-3
4.452245583E0,-2.695702948E-3,-6.037972867E-3,-1.010292675E-3,6.689142099E-3
4.462253583E0,-4.487744067E-3,-1.484424714E-2,2.254476305E-3,1.567080672E-2
4.472260583E0,-5.385495257E-3,-2.067337371E-2,1.551401801E-3,2.141958887E-2
4.482268583E0,-4.571100697E-3,-1.861262135E-2,1.876840368E-3,1.925739248E-2
4.492275583E0,-9.204394883E-4,-9.190090001E-3,2.004671842E-3,9.451120159E-3
4.502283583E0,1.379742753E-5,-5.688565783E-3,2.717866562E-3,6.304503921E-3
4.512290583E0,-5.619780859E-4,-1.015335508E-2,6.171651185E-4,1.018760676E-2
4.522298583E0,-2.489574254E-3,-1.132514607E-2,1.771378797E-3,1.173007657E-2
4.532305583E0,-1.828577486E-3,-8.955731988E-3,1.889816858E-2,2.099260838E-2
4.542313583E0,2.033424936E-2,6.510997564E-2,3.094202578E-1,3.168496277E-1
4.552320583E0,-1.689826720E-3,1.671847329E-2,6.650475860E-1,6.652598398E-1
4.562328583E0,-1.157993567E-3,1.779678650E-2,9.441120028E-1,9.442804353E-1
4.572335583E0,5.383262876E-3,4.235565662E-2,1.115953803E0,1.116770286E0
4.582343583E0,-4.053382203E-3,1.991133578E-2,1.181862473E0,1.182037139E0
4.592350583E0,8.172923699E-3,4.266085476E-2,1.145663977E0,1.146487110E0
4.602358583E0,-2.007009462E-3,8.824064396E-3,1.073633790E0,1.073671927E0
4.612365583E0,-1.809136360E-3,9.866425768E-3,1.004803300E0,1.004853368E0
4.622373583E0,4.516670015E-3,2.235531993E-2,9.946010113E-1,9.948624690E-1
4.632380583E0,-2.914009383E-4,1.066191122E-2,1.045240164E0,1.045294581E0
4.642388583E0,2.414370887E-3,1.220787689E-2,1.164632678E0,1.164699161E0
4.652395583E0,-2.917810343E-3,9.965228848E-3,1.339341879E0,1.339382129E0
4.662403583E0,-7.665088633E-4,9.036851116E-3,1.577735782E0,1.577761848E0
4.672410583E0,9.688069695E-4,3.957611695E-2,1.860629082E0,1.861050184E0
4.682418583E0,2.347259084E-3,5.548317730E-2,2.147898197E0,2.148615963E0
4.692425583E0,3.856472671E-3,7.929184288E-2,2.431673288E0,2.432968773E0
4.702433583E0,4.537442699E-3,8.806988597E-2,2.606811285E0,2.608302507E0
4.712440583E0,-8.173558861E-3,6.401594728E-2,2.533935070E0,2.534756751E0
4.722448583E0,1.885752194E-2,-1.481073350E-2,2.298651695E0,2.298776757E0
4.732455583E0,-6.300295703E-3,3.676351160E-2,2.173373461E0,2.173693504E0
4.742463583E0,-1.045163069E-2,2.429831959E-2,2.096607924E0,2.096774769E0
4.752470583E0,1.546974643E-3,2.510578930E-2,2.011649609E0,2.011806860E0
4.762478583E0,1.714164577E-2,6.496079266E-2,1.899194002E0,1.900381961E0
4.772485583E0,4.595495295E-3,2.972450852E-2,1.763391614E0,1.763648108E0
4.782493583E0,-1.521785860E-3,1.090448350E-2,1.607678771E0,1.607716472E0
4.792500583E0,1.324068056E-3,-3.772137687E-2,1.596848488E0,1.597294509E0
4.802508333E0,-6.770077161E-3,1.955729211E-3,1.794792771E0,1.794806605E0
4.812515333E0,1.628304273E-2,6.876538694E-2,2.009554386E0,2.010796520E0
4.822523333E0,1.870652102E-2,1.319089234E-1,2.144214153E0,2.148349188E0
4.832530333E0,-7.808710448E-3,2.036243305E-2,2.123885393E0,2.123997356E0
4.842538333E0,-1.086495351E-2,1.586968079E-2,2.006385565E0,2.006477742E0
4.852545333E0,8.023782633E-3,2.983769402E-2,1.868121862E0,1.868377361E0
4.862553333E0,-7.688867860E-3,3.148672357E-2,1.712742925E0,1.713049579E0
4.872560333E0,-8.705396205E-3,-1.061439142E-2,1.617184877E0,1.617243141E0
4.882568333E0,2.133053355E-2,7.871948183E-2,1.505262375E0,1.507470254E0
4.892575333E0,4.881518427E-3,3.270325437E-2,1.388751268E0,1.389144851E0
4.902583333E0,-3.225676250E-3,5.035142414E-3,1.250071883E0,1.250086185E0
4.912590333E0,5.549705587E-3,3.150962666E-2,1.120263577E0,1.120720365E0
4.922598333E0,1.415414503E-3,2.385224029E-2,9.855794907E-1,9.858690913E-1
4.932605333E0,5.838925019E-3,2.928109467E-2,8.719615340E-1,8.724725740E-1
4.942613333E0,6.651189178E-3,2.500032820E-2,7.795514464E-1,7.799805846E-1
4.952620333E0,1.755766454E-3,1.647182181E-2,6.643524170E-1,6.645589045E-1
4.962628333E0,5.918020848E-3,1.887905225E-2,5.684996843E-1,5.688438561E-1
4.972635333E0,4.896432161E-3,1.582600549E-2,5.191646218E-1,5.194288614E-1
4.982643333E0,-9.361599572E-3,-1.200482715E-2,4.820266068E-1,4.822669438E-1
4.992650333E0,-4.049688205E-2,5.668768287E-2,5.534759760E-1,5.578432995E-1
5.002658333E0,-6.370207667E-2,-1.336657554E-1,5.946710706E-1,6.128280109E-1
5.012665333E0,-2.138470672E-2,-8.081424981E-2,5.277165771E-1,5.342967662E-1
5.022673333E0,7.880367339E-2,2.065035403E-1,3.704771698E-1,4.314012800E-1
5.032680333E0,1.753369579E-3,1.071646437E-2,8.228584379E-2,8.299925904E-2
5.042688333E0,2.265572175E-2,2.212997340E-2,-2.125529796E-1,2.148994802E-1
5.052695333E0,-1.048438810E-2,-5.932813510E-2,-5.515318513E-1,5.548127008E-1
5.062703333E0,1.668464765E-2,2.880644752E-3,-8.616782427E-1,8.618445739E-1
5.072710333E0,2.577854507E-2,1.670751162E-2,-1.279714346E0,1.280082998E0
5.082718333E0,2.406533249E-2,-3.086167388E-3,-1.689972758E0,1.690146913E0
5.092725333E0,1.802821271E-2,-2.234162018E-2,-2.073701620E0,2.073900329E0
5.102733333E0,1.162570808E-2,-5.173572898E-2,-2.533305883E0,2.533860778E0
5.112740333E0,1.079426892E-2,-3.890754655E-2,-2.951814651E0,2.952090793E0
5.122748333E0,1.065475168E-3,-7.270279527E-2,-3.298347473E0,3.299148812E0
5.132755333E0,4.733979702E-3,-6.484407187E-2,-3.674829245E0,3.675404351E0
5.142763333E0,-9.298748337E-3,-8.440978825E-2,-4.023716927E0,4.024612948E0
5.152771333E0,-4.384118365E-4,-8.635868877E-2,-4.370974064E0,4.371827110E0
5.162778333E0,-7.829749025E-3,-8.146512508E-2,-4.699260712E0,4.699973309E0
5.172785333E0,-2.389766462E-2,-1.316348314E-1,-4.975933075E0,4.977731290E0
5.182793333E0,-1.327298395E-2,-8.563244343E-2,-5.141420841E0,5.142151043E0
5.192801333E0,-2.543108072E-3,-9.512341768E-2,-5.217751026E0,5.218618659E0
5.202808333E0,1.350882929E-2,-7.887360454E-2,-5.233048916E0,5.233660716E0
5.212816333E0,2.508505806E-2,-4.609861597E-2,-5.171052456E0,5.171318772E0
5.222823333E0,1.576266252E-2,-5.747404322E-2,-4.994376183E0,4.994731743E0
5.232831333E0,-1.091635320E-2,-1.005368233E-1,-4.876535416E0,4.877583877E0
5.242838333E0,1.649929211E-2,-3.540682420E-2,-4.799512863E0,4.799671821E0
5.252846333E0,7.731367368E-3,-7.156482339E-2,-4.670114994E0,4.670669690E0
5.262853333E0,1.052955072E-2,-9.338890016E-2,-4.655931950E0,4.656880359E0
5.272861333E0,-1.687970385E-2,-1.377441138E-1,-4.826599121E0,4.828593733E0
5.282868333E0,-5.506673828E-3,-8.183184266E-2,-5.064356804E0,5.065020890E0
5.292876333E0,1.103155687E-2,-8.193224669E-2,-5.374567509E0,5.375203298E0
5.302883333E0,1.411469840E-2,-8.220522106E-2,-5.698823452E0,5.699433802E0
5.312891333E0,-3.186527640E-3,-1.128653958E-1,-5.829034328E0,5.830127782E0
5.322898333E0,-3.303976357E-2,-1.657081097E-1,-5.812206745E0,5.814662333E0
5.332906333E0,-6.387913600E-3,-1.210066751E-1,-5.738453388E0,5.739732634E0
5.342913333E0,-1.292437594E-2,-1.305269599E-1,-5.693750858E0,5.695261466E0
5.352921333E0,-1.437606476E-2,-1.133708656E-1,-5.618481636E0,5.619643718E0
5.362928333E0,-3.132309020E-2,-1.461075097E-1,-5.485416412E0,5.487451299E0
5.372936333E0,-2.184143849E-2,-1.354705840E-1,-5.503183842E0,5.504894343E0
5.382943333E0,-2.191520855E-2,-1.461767554E-1,-5.627897263E0,5.629837966E0
5.392951333E0,-2.300523967E-2,-1.130166650E-1,-5.818156242E0,5.819299276E0
5.402958333E0,2.185624093E-2,-3.927726299E-3,-6.070178032E0,6.070218650E0
5.412966333E0,-4.318903666E-3,-9.402859211E-2,-6.237761021E0,6.238471173E0
5.422973333E0,-1.929146238E-2,-1.479773223E-1,-6.224615574E0,6.226404138E0
5.432981333E0,-3.566590697E-2,-1.842911094E-1,-6.032735348E0,6.035654981E0
5.442988333E0,-5.408832431E-2,-1.949536204E-1,-5.740434647E0,5.743998816E0
5.452996333E0,-4.464475438E-2,-1.807094365E-1,-5.458537579E0,5.461710497E0
5.463003333E0,-3.981298208E-2,-1.127213165E-1,-5.173720837E0,5.175101783E0
5.473011333E0,-1.987762377E-2,-5.355759710E-2,-4.803764343E0,4.804104017E0
5.483018333E0,-3.142775223E-2,-1.007224470E-1,-4.381525517E0,4.382795748E0
5.493026333E0,-4.922113195E-2,-1.351475418E-1,-3.925278425E0,3.927912715E0
5.503033333E0,-3.434178233E-2,-9.383178502E-2,-3.476486444E0,3.477922046E0
5.513041333E0,-2.303689718E-3,-8.272742853E-4,-3.017091036E0,3.017092029E0
5.523048333E0,3.120739944E-2,1.078528687E-1,-2.592389822E0,2.594820058E0
5.533056333E0,6.036182120E-2,1.508559883E-1,-2.251177073E0,2.257033294E0
5.543063333E0,7.506512851E-2,1.772047728E-1,-2.094703436E0,2.103525324E0
5.553071333E0,4.877387360E-2,5.787918344E-2,-2.126843929E0,2.128190309E0
5.563078333E0,3.992978483E-2,2.205593698E-2,-2.414028168E0,2.414459121E0
5.573086333E0,2.859031036E-2,5.986297131E-2,-2.865997553E0,2.866765242E0
5.583093333E0,7.253596094E-3,-5.859230459E-2,-3.343752861E0,3.344274042E0
5.593101333E0,5.556629971E-3,-1.071023121E-1,-3.825672388E0,3.827175329E0
5.603108333E0,1.056710165E-2,-4.076137394E-2,-4.219926357E0,4.220136445E0
5.613116333E0,1.596186683E-2,-8.705703542E-3,-4.461737156E0,4.461774201E0
5.623123333E0,2.649307065E-2,-5.972201750E-2,-4.563566685E0,4.564034343E0
5.633131333E0,2.824303322E-2,-1.412240714E-1,-4.542160988E0,4.544443678E0
5.643138333E0,6.210169755E-3,-1.860634536E-1,-4.426139832E0,4.430053271E0
5.653146333E0,3.001936153E-2,-1.032279506E-1,-4.230108738E0,4.231474578E0
5.663153333E0,2.195104957E-2,-7.321678847E-2,-3.959878206E0,3.960615856E0
5.673161333E0,9.052827954E-3,-7.134005427E-2,-3.684341669E0,3.685043404E0
5.683168333E0,4.364090040E-2,-5.395387486E-2,-3.378639460E0,3.379352031E0
5.693176333E0,3.027183004E-2,-5.878351629E-2,-3.013651848E0,3.014377107E0
5.703183333E0,-6.072704867E-2,-8.086591959E-2,-2.717330456E0,2.719211628E0
5.713191333E0,4.991291091E-2,-8.727541193E-3,-2.557493210E0,2.557995111E0
5.723198333E0,1.740930043E-2,-4.336225986E-2,-2.418284655E0,2.418736042E0
5.733206333E0,2.520730346E-2,-2.018902823E-2,-2.342055321E0,2.342277979E0
5.743213333E0,2.063545398E-2,-5.044786632E-2,-2.418163061E0,2.418777253E0
5.753221333E0,-8.855707943E-2,-1.449791640E-1,-2.641191483E0,2.646649535E0
5.763228333E0,-2.903995663E-2,-8.522076160E-2,-3.041948080E0,3.043280141E0
5.773236333E0,-2.463428862E-2,-4.061068222E-2,-3.404256582E0,3.404587927E0
5.783243333E0,-1.171156578E-2,-7.189163566E-2,-3.571776152E0,3.572518782E0
5.793251333E0,3.950484097E-3,-6.277936697E-2,-3.652994394E0,3.653535945E0
5.803258000E0,3.005052730E-2,-3.982238472E-2,-3.536635637E0,3.536987488E0
5.813266000E0,-3.184922971E-3,-5.362581462E-2,-3.438104630E0,3.438524293E0
5.823274000E0,-1.596197113E-2,-9.351650625E-2,-3.419473410E0,3.420789166E0
5.833281000E0,1.057758695E-3,-6.981570274E-2,-3.320087194E0,3.320821334E0
5.843288000E0,2.712913323E-3,-4.984758794E-2,-3.115730047E0,3.116129951E0
5.853296000E0,-1.477686502E-2,-8.052720875E-2,-2.836342335E0,2.837523714E0
5.863304000E0,-2.163290605E-2,-8.851455897E-2,-2.560508013E0,2.562128821E0
5.873311000E0,-7.542121224E-3,-6.650672853E-2,-2.429847479E0,2.430769178E0
5.883319000E0,1.868868433E-2,-1.048713364E-2,-2.510106802E0,2.510198280E0
5.893326000E0,3.096665628E-2,3.307658806E-2,-2.684490681E0,2.684873034E0
5.903334000E0,1.113418723E-3,-5.670230091E-2,-2.743221998E0,2.743808179E0
5.913341000E0,-2.939735167E-2,-1.098552644E-1,-2.784259319E0,2.786580762E0
5.923349000E0,-2.065818943E-2,-7.254411280E-2,-2.798778534E0,2.799794759E0
5.933356000E0,-3.542142361E-2,-1.202751473E-1,-2.863089323E0,2.865833432E0
5.943364000E0,-4.187852517E-2,-1.488548517E-1,-2.976745844E0,2.980759534E0
5.953371000E0,-3.254787251E-2,-1.039150879E-1,-2.988393545E0,2.990376848E0
5.963379000E0,-3.392446041E-2,-1.264733821E-1,-3.021337986E0,3.024174203E0
5.973386000E0,-4.417736456E-2,-1.468761265E-1,-2.954174042E0,2.958152887E0
5.983394000E0,-6.015713140E-2,-1.463520229E-1,-2.771928549E0,2.776441189E0
5.993401000E0,-7.131017745E-2,-2.141355872E-1,-2.586956501E0,2.596783227E0
6.003409000E0,-9.820437431E-2,-2.584213018E-1,-2.454188108E0,2.469709485E0
6.013416000E0,-1.270101964E-1,-3.099481463E-1,-2.334804058E0,2.358709273E0
6.023424000E0,-1.325535625E-1,-3.752930760E-1,-2.213691235E0,2.249187458E0
6.033431000E0,-1.144206300E-1,-2.957324684E-1,-2.109373569E0,2.133074455E0
6.043439000E0,-7.107742131E-2,-1.374522597E-1,-2.015419960E0,2.021351711E0
6.053446000E0,-4.401597753E-2,-3.340310231E-2,-1.950634480E0,1.951416933E0
6.063454000E0,-2.813288383E-2,2.227587439E-2,-1.940053582E0,1.940385419E0
6.073461000E0,-2.942877822E-2,7.516368292E-3,-1.991080999E0,1.991312656E0
6.083469000E0,-4.856811836E-2,-3.555094078E-2,-2.104065418E0,2.104926131E0
6.093476000E0,-5.563055724E-2,-5.065665767E-2,-2.286254644E0,2.287492329E0
6.103484000E0,-7.516776770E-2,-1.199145615E-1,-2.426382780E0,2.430506756E0
6.113491000E0,-9.904140979E-2,-1.936026216E-1,-2.517792225E0,2.527166173E0
6.123499000E0,-1.054849252E-1,-1.902483702E-1,-2.567703485E0,2.576901764E0
6.133506000E0,-1.068324894E-1,-1.878091842E-1,-2.547539711E0,2.556686146E0
6.143514000E0,-1.127295271E-1,-2.161079347E-1,-2.465438128E0,2.477457517E0
6.153521000E0,-1.103949994E-1,-1.671883166E-1,-2.409960270E0,2.418273659E0
6.163529000E0,-8.123578131E-2,-4.484217986E-2,-2.400501251E0,2.402293973E0
6.173536000E0,-4.781444371E-2,7.351215929E-2,-2.374058485E0,2.375677577E0
6.183544000E0,-3.271671757E-2,1.170862690E-1,-2.265418053E0,2.268677705E0
6.193551000E0,-4.205509275E-2,3.510245308E-2,-2.020019770E0,2.020762401E0
6.203559000E0,-9.770796448E-2,-1.815696657E-1,-1.661768675E0,1.674511725E0
6.213566000E0,-1.527840048E-1,-4.734515846E-1,-1.234530807E0,1.331001753E0
6.223574000E0,-1.991794556E-1,-6.487008929E-1,-8.778370023E-1,1.109541845E0
6.233581000E0,-1.678676158E-1,-4.850102365E-1,-6.625622511E-1,8.380949842E-1
6.243589000E0,-3.695034608E-2,-3.756109625E-2,-4.678833187E-1,4.708406991E-1
6.253596000E0,2.586670220E-2,1.175664365E-1,-1.815866083E-1,2.178638327E-1
6.263604000E0,2.280539833E-2,6.181555986E-2,1.883272678E-1,1.995204486E-1
6.273611000E0,2.132974006E-2,-9.549967013E-3,5.718269944E-1,5.723043519E-1
6.283619000E0,3.592519462E-2,-2.599551901E-2,1.015797257E0,1.016764700E0
6.293626000E0,6.458294392E-2,-8.471120149E-3,1.538099527E0,1.539478117E0
6.303634000E0,8.985101432E-2,-7.097728085E-3,2.061643362E0,2.063612593E0
6.313641000E0,1.157356054E-1,1.425336581E-2,2.531280041E0,2.533964588E0
6.323649000E0,1.497119516E-1,9.229117632E-2,2.961375713E0,2.966593576E0
6.333656000E0,1.842765808E-1,1.527491957E-1,3.343810081E0,3.352365737E0
6.343664000E0,1.715509295E-1,1.092635021E-1,3.693009377E0,3.698606020E0
6.353671000E0,2.097664922E-1,1.783981025E-1,4.056479454E0,4.065815223E0
6.363679000E0,2.555347979E-1,3.727316260E-1,4.325807095E0,4.349348677E0
6.373686000E0,2.808345556E-1,5.336371660E-1,4.605028629E0,4.644343371E0
6.383694000E0,3.006348908E-1,5.981567502E-1,4.905833244E0,4.951300098E0
6.393701000E0,2.821677327E-1,6.393902302E-1,5.179478168E0,5.226416803E0
6.403709000E0,2.534484565E-1,6.340644360E-1,5.363706589E0,5.406997522E0
6.413716000E0,1.882172674E-1,5.619809031E-1,5.470366001E0,5.502376983E0
6.423724000E0,1.504627019E-1,3.776105344E-1,5.451118946E0,5.466253425E0
6.433732000E0,6.976598501E-2,2.054198682E-1,5.207675457E0,5.212192272E0
6.443739000E0,3.402262926E-2,9.681535512E-2,4.768599510E0,4.769703559E0
6.453747000E0,2.987981960E-2,7.012595236E-2,4.317130089E0,4.317802990E0
6.463754000E0,3.708659858E-2,1.258105338E-1,3.942455053E0,3.944636302E0
6.473762000E0,6.425776333E-2,2.729882300E-1,3.753054142E0,3.763517906E0
6.483769000E0,3.351396695E-2,1.070642620E-1,3.699524641E0,3.701225272E0
6.493777000E0,9.869185742E-4,6.341611594E-2,3.660676241E0,3.661225631E0
6.503784000E0,2.586670220E-2,9.449414164E-2,3.649137735E0,3.650452635E0
6.513792000E0,1.096178871E-2,1.032301113E-1,3.717380285E0,3.718829494E0
6.523799000E0,2.110363916E-2,9.789340198E-2,3.778244734E0,3.779571636E0
6.533807000E0,-9.678417118E-4,9.980209172E-2,3.797658920E0,3.798970212E0
6.543814000E0,2.697292948E-4,5.659709498E-2,3.899864197E0,3.900274869E0
6.553822000E0,9.111956693E-3,1.108110622E-1,4.116990566E0,4.118491646E0
6.563829000E0,-6.159408018E-3,1.018465981E-1,4.354327679E0,4.355522954E0
6.573837000E0,9.120837785E-4,5.734597519E-2,4.614260197E0,4.614616621E0
6.583844000E0,-1.258135401E-2,8.565537632E-2,4.945507526E0,4.946265240E0
6.593852000E0,-2.023075148E-2,8.106941730E-2,5.352447987E0,5.353100128E0
6.603859000E0,-2.426091395E-2,1.091905311E-1,5.766794682E0,5.767879338E0
6.613867000E0,-2.011437155E-2,9.848196059E-2,6.114611626E0,6.115437729E0
6.623874000E0,-5.796152633E-3,1.600100398E-1,6.354624271E0,6.356641129E0
6.633882000E0,-2.879547700E-2,1.279892623E-1,6.456972599E0,6.458305163E0
6.643889000E0,-2.662526816E-2,6.825108826E-2,6.453789711E0,6.454205509E0
6.653897000E0,-2.958856709E-2,1.015243530E-1,6.510783672E0,6.511642397E0
6.663904000E0,-2.742501535E-2,9.806038439E-2,6.640929699E0,6.641710264E0
6.673912000E0,-7.543984801E-3,1.104653850E-1,6.785074234E0,6.785977592E0
6.683919000E0,5.708436947E-3,1.404435337E-1,7.005739689E0,7.007149603E0
6.693927000E0,-1.218267903E-2,1.603546590E-1,7.421921253E0,7.423663322E0
6.703934000E0,-6.500558928E-3,1.578781754E-1,7.848863602E0,7.850453975E0
6.713942000E0,-1.677982695E-2,1.592398584E-1,8.068345070E0,8.069933771E0
6.723949000E0,8.071552729E-4,1.865399182E-1,7.911193848E0,7.913392818E0
6.733957000E0,-3.727525100E-2,9.845053405E-2,7.420633316E0,7.421379977E0
6.743964000E0,-2.703193203E-2,8.374322951E-2,6.808136463E0,6.808705145E0
6.753972000E0,-6.641440094E-3,6.231144071E-2,6.228398800E0,6.228714027E0
6.763979000E0,-2.985808067E-2,4.235850275E-2,5.775406837E0,5.775639349E0
6.773987000E0,-1.289986819E-2,5.018686503E-2,5.434351921E0,5.434598967E0
6.783994000E0,-2.317265142E-3,1.329323500E-1,5.270634651E0,5.272311258E0
6.794002000E0,3.870952874E-2,1.966016144E-1,5.269968987E0,5.273776990E0
6.804009333E0,-2.499940805E-2,3.614588082E-2,5.450763226E0,5.450940399E0
6.814017333E0,3.010388464E-3,7.628930360E-2,5.746681213E0,5.747188364E0
6.824024333E0,-2.802759409E-3,7.100692391E-2,6.088158131E0,6.088572843E0
6.834032333E0,-6.254216656E-3,9.587179869E-2,6.375484467E0,6.376208333E0
6.844039333E0,-2.407812513E-3,1.064141840E-1,6.565335274E0,6.566198065E0
6.854047333E0,1.011685934E-3,1.067745090E-1,6.550112247E0,6.550982543E0
6.864054333E0,-1.088758372E-2,5.794545263E-2,6.327262402E0,6.327537097E0
6.874062333E0,-8.161305450E-3,8.202815056E-2,6.133310795E0,6.133864730E0
6.884069333E0,-4.926098045E-3,9.508456290E-2,6.016395569E0,6.017148908E0
6.894077333E0,-4.683493450E-2,2.540251939E-3,5.997874260E0,5.998057652E0
6.904084333E0,-6.192201003E-2,-1.219228506E-1,6.014478207E0,6.016032548E0
6.914092333E0,-3.812213615E-2,-1.091505960E-1,6.185421467E0,6.186501909E0
6.924099333E0,-1.298642065E-2,-7.280323654E-2,6.442227364E0,6.442651811E0
6.934107333E0,6.781957112E-3,-9.046718478E-2,6.554163456E0,6.554791294E0
6.944114333E0,3.242313862E-2,-9.186720848E-2,6.372071266E0,6.372815945E0
6.954122333E0,8.003246784E-2,1.131554469E-1,5.966651917E0,5.968261426E0
6.964130333E0,1.513679028E-1,4.449722469E-1,5.503622055E0,5.523655336E0
6.974137333E0,1.748572439E-1,5.970116258E-1,5.180677414E0,5.217893867E0
6.984145333E0,1.204729266E-2,5.698831379E-2,4.991254330E0,4.991594193E0
6.994152333E0,-8.047278225E-2,-2.407182008E-1,4.795437336E0,4.802149557E0
7.004160333E0,-1.415687986E-2,-6.707664579E-2,4.716165543E0,4.716663770E0
7.014167333E0,3.730710596E-2,9.361503273E-2,4.627721786E0,4.628818913E0
7.024175333E0,5.876952410E-2,1.826879233E-1,4.455836773E0,4.459967498E0
7.034182333E0,5.942652375E-2,2.223357409E-1,4.261203766E0,4.267413998E0
7.044190333E0,4.961996526E-2,1.565932035E-1,3.963417768E0,3.966820387E0
7.054197333E0,2.081415243E-2,1.002721339E-1,3.589717150E0,3.591177654E0
7.064205333E0,-4.589474294E-3,2.312435769E-2,3.080726862E0,3.080817066E0
7.074212333E0,1.260043122E-2,5.494140834E-2,2.521326065E0,2.521956077E0
7.084220333E0,2.480916120E-2,6.395380944E-2,2.051583290E0,2.052729787E0
7.094227333E0,4.027733207E-2,9.927371889E-2,1.762426972E0,1.765680143E0
7.104235333E0,2.343470417E-2,6.183846295E-2,1.631740808E0,1.633080294E0
7.114242333E0,-1.918519475E-2,-3.560313955E-2,1.497202992E0,1.497749130E0
7.124250333E0,-4.169316962E-2,-8.878806233E-2,1.167534232E0,1.171647483E0
7.134257333E0,-2.433601394E-2,-5.780378357E-2,9.998571277E-1,1.001822237E0
7.144265333E0,-6.181441620E-2,-1.667014956E-1,8.034527898E-1,8.228892976E-1
7.154272333E0,-3.886489198E-2,-1.053997949E-1,6.413549781E-1,6.511188866E-1
7.164280333E0,2.492900379E-2,1.062868834E-1,4.609441757E-1,4.736959889E-1
7.174287333E0,7.662735134E-2,2.367908359E-1,1.185532510E-1,2.756746710E-1
7.184295333E0,6.075597554E-2,1.490910798E-1,-4.519887865E-1,4.798054832E-1
7.194302333E0,5.481472984E-2,8.173387498E-2,-1.046064496E0,1.050683592E0
7.204310333E0,-3.326070495E-3,-4.533273354E-2,-1.602819085E0,1.603463482E0
7.214317333E0,-1.266551018E-2,-7.252653688E-2,-2.176524878E0,2.177769744E0
7.224325333E0,-1.342531014E-2,-7.951227576E-2,-2.749086380E0,2.750268781E0
7.234332333E0,-4.180235788E-2,-1.531915516E-1,-3.275499344E0,3.279346130E0
7.244340333E0,-5.004244670E-2,-1.970948279E-1,-3.813550949E0,3.818968638E0
7.254347333E0,-1.944698393E-2,-1.047105715E-1,-4.317213058E0,4.318526494E0
7.264355333E0,3.313872963E-2,4.795061052E-2,-4.633717060E0,4.634083645E0
7.274362333E0,5.778601766E-2,6.179931015E-2,-4.739089489E0,4.739844677E0
7.284370333E0,-1.878376468E-3,-6.936909258E-2,-4.881657600E0,4.882150810E0
7.294377333E0,-1.081035193E-2,-1.190202683E-1,-5.124321461E0,5.125714889E0
7.304385333E0,-2.017376013E-2,-8.724796027E-2,-5.460576057E0,5.461310288E0
7.314392333E0,2.366986126E-2,-2.401776146E-3,-5.784006119E0,5.784055049E0
7.324400333E0,-1.835407456E-4,-7.854022086E-2,-6.036581993E0,6.037092906E0
7.334407333E0,-1.185058337E-2,-1.022663191E-1,-6.231760025E0,6.232610356E0
7.344415333E0,9.565226734E-3,-7.455426455E-2,-6.466334820E0,6.466771670E0
7.354422333E0,-6.167663261E-3,-1.190586165E-1,-6.771830082E0,6.772879421E0
7.364430333E0,3.787116334E-2,-7.556334138E-2,-7.034719944E0,7.035227696E0
7.374437333E0,-9.316585027E-3,-1.654178500E-1,-7.180541039E0,7.182452191E0
7.384445333E0,8.270930499E-3,-9.143471718E-2,-7.194786072E0,7.195371800E0
7.394452333E0,-1.258455031E-2,-1.610020697E-1,-7.163998604E0,7.165818588E0
7.404460333E0,-1.628767513E-2,-1.627557576E-1,-7.095315933E0,7.097201062E0
7.414468333E0,-1.577555016E-2,-1.579093337E-1,-6.983068466E0,6.984871468E0
7.424475333E0,-2.261348255E-2,-1.580480933E-1,-6.867742062E0,6.869597630E0
7.434482333E0,-4.111499712E-2,-1.995763630E-1,-6.750392914E0,6.753467677E0
7.444490333E0,-2.435865067E-2,-1.194202751E-1,-6.526116371E0,6.527254357E0
7.454498333E0,2.259900421E-2,-1.793546230E-2,-6.221915245E0,6.221982137E0
7.464505333E0,1.750144735E-2,-5.494248495E-2,-5.885215759E0,5.885498238E0
7.474513333E0,1.366889197E-2,-7.409034669E-2,-5.519896030E0,5.520410166E0
7.484520333E0,-1.462266780E-2,-1.298739761E-1,-5.209859371E0,5.211498416E0
7.494528333E0,-2.343053930E-2,-9.314899147E-2,-5.078227043E0,5.079135323E0
7.504535333E0,-3.110887017E-3,-6.542308629E-2,-5.015645027E0,5.016072657E0
7.514543333E0,5.351839587E-3,-5.928822979E-2,-5.066359997E0,5.066709717E0
7.524550333E0,-2.522977069E-2,-1.082227454E-1,-5.159801483E0,5.160997970E0
7.534558333E0,-3.238142654E-2,-1.607325524E-1,-5.245186806E0,5.247748864E0
7.544565333E0,-5.673603341E-2,-2.215700746E-1,-5.361213207E0,5.366089762E0
7.554573333E0,-8.364008367E-2,-2.552910447E-1,-5.539590836E0,5.546100955E0
7.564580333E0,-7.259222865E-2,-1.677774191E-1,-5.788041592E0,5.790927763E0
7.574588333E0,-4.682188481E-2,-1.194905862E-1,-5.868515968E0,5.869919076E0
7.584595333E0,7.198332995E-2,2.135550231E-1,-5.151350975E0,5.156278136E0
7.594603333E0,9.142094851E-2,1.849590689E-1,-4.249169350E0,4.254175338E0
7.604610333E0,-6.818806753E-3,-7.431804389E-2,-3.558744431E0,3.559526877E0
7.614618333E0,4.192129895E-2,1.185838599E-2,-3.433484554E0,3.433760941E0
7.624625333E0,2.229283098E-3,-9.009487927E-2,-4.144170761E0,4.145150583E0
7.634633333E0,-3.441794589E-2,-1.465943605E-1,-5.416984081E0,5.419076585E0
7.644640333E0,2.276971191E-2,-8.839417994E-2,-6.683616638E0,6.684239924E0
7.654648333E0,3.083358984E-3,-1.573580652E-1,-7.335594177E0,7.337282399E0
7.664655333E0,5.969160236E-3,-1.468668133E-1,-7.706537724E0,7.707939360E0
7.674663333E0,1.388789620E-3,-9.096519649E-2,-7.906300068E0,7.906823468E0
7.684670333E0,-1.070302725E-2,-1.998043209E-1,-7.936684132E0,7.939205963E0
7.694678333E0,-3.976557404E-2,-2.048020065E-1,-7.850016117E0,7.852787925E0
7.704685333E0,-8.526008576E-2,-2.020102143E-1,-7.581475735E0,7.584645788E0
7.714693333E0,-1.164731309E-1,-4.239538312E-1,-7.134506226E0,7.148040425E0
7.724700333E0,-9.201598912E-2,-2.703801095E-1,-6.689205170E0,6.695299706E0
7.734708333E0,2.368876711E-2,1.239876971E-1,-6.233010769E0,6.234288841E0
7.744715333E0,9.814462811E-2,2.636614442E-1,-5.790931225E0,5.797761135E0
7.754723333E0,3.624637052E-2,-3.483549878E-2,-5.386410713E0,5.386645309E0
7.764730333E0,-2.706495672E-2,-1.529842317E-1,-4.976544380E0,4.978968835E0
7.774738333E0,-3.630612791E-2,-1.552175581E-1,-4.622325897E0,4.625073764E0
7.784745333E0,-8.481686004E-3,-8.658605069E-2,-4.277369022E0,4.278253713E0
7.794753333E0,-1.034110505E-2,-4.500957206E-2,-3.997875452E0,3.998142185E0
7.804760458E0,-3.699714318E-3,-4.817660153E-2,-3.724828720E0,3.725142100E0
7.814768458E0,-1.239733119E-2,-2.693469822E-2,-3.384273529E0,3.384403417E0
7.824775458E0,-5.462894216E-2,-1.506318748E-1,-3.099786282E0,3.103924818E0
7.834783458E0,-1.040209904E-1,-3.104380667E-1,-3.019748926E0,3.037445594E0
7.844790458E0,-1.208617538E-1,-3.869871497E-1,-2.965699911E0,2.993282910E0
7.854798458E0,-8.747157454E-2,-2.129309326E-1,-2.903294802E0,2.912406490E0
7.864805458E0,-3.324242681E-2,-4.486762732E-2,-2.826433659E0,2.826985212E0
7.874813458E0,1.778674428E-3,8.545602113E-2,-2.675369263E0,2.676734314E0
7.884820458E0,1.616001129E-2,1.165095419E-1,-2.423424959E0,2.426277839E0
7.894828458E0,-3.205625713E-2,-7.713954896E-2,-2.066069603E0,2.067757655E0
7.904835458E0,-9.219655395E-2,-2.557649612E-1,-1.640686512E0,1.663059876E0
7.914843458E0,-1.066567227E-1,-3.542150855E-1,-1.164659023E0,1.221996164E0
7.924850458E0,-7.844292372E-2,-2.886848152E-1,-6.131436229E-1,6.822296659E-1
7.934858458E0,-2.530620620E-2,-1.172755137E-1,2.945423126E-2,1.235374515E-1
7.944866458E0,2.579213120E-2,4.809001088E-2,6.983068585E-1,7.004358299E-1
7.954873458E0,5.812903121E-2,1.141659617E-1,1.385698080E0,1.391607711E0
7.964881458E0,6.176504493E-2,1.441246718E-1,2.040664911E0,2.046680269E0
7.974888458E0,9.169871360E-2,1.838478446E-1,2.571317911E0,2.579512451E0
7.984896458E0,1.016823724E-1,2.195744216E-1,3.068299532E0,3.077826221E0
7.994903458E0,1.059032157E-1,2.616515458E-1,3.549130678E0,3.560337848E0
8.004911458E0,1.092617288E-1,2.865305245E-1,4.040547848E0,4.052167911E0
8.014918458E0,1.075242832E-1,2.985469699E-1,4.556647301E0,4.567682825E0
8.024926458E0,7.722389698E-2,2.515115738E-1,5.102420807E0,5.109199516E0
8.034933458E0,6.282898039E-2,1.864481568E-1,5.582584858E0,5.586050849E0
8.044941458E0,6.260847300E-2,1.987493038E-1,5.943597317E0,5.947248958E0
8.054948458E0,5.463496223E-2,1.693839580E-1,6.196862221E0,6.199417496E0
8.064956458E0,2.321871929E-2,1.542729139E-1,6.367947578E0,6.369858366E0
8.074963458E0,7.928978652E-3,1.401243359E-1,6.460071564E0,6.461595957E0
8.084971458E0,1.697973162E-2,1.103544459E-1,6.495660305E0,6.496619830E0
8.094978458E0,-8.874161867E-4,9.522103518E-2,6.514297962E0,6.514993920E0
8.104986458E0,1.925680903E-3,1.293547750E-1,6.463121414E0,6.464416043E0
8.114993458E0,-1.171841635E-3,1.367415935E-1,6.368988514E0,6.370456367E0
8.125001458E0,-3.489058465E-3,1.323226094E-1,6.276725292E0,6.278120884E0
8.135008458E0,-2.494900487E-3,1.177569702E-1,6.273499012E0,6.274604592E0
8.145016458E0,-1.218055002E-2,5.492208526E-2,6.327765942E0,6.328016009E0
8.155023458E0,-1.174192782E-2,6.969223917E-2,6.398951054E0,6.399341331E0
8.165031458E0,1.954115927E-2,1.570519209E-1,6.468983650E0,6.470919303E0
8.175038458E0,1.113648992E-2,1.046659350E-1,6.523760796E0,6.524609866E0
8.185046458E0,3.382163588E-3,1.005729213E-1,6.528376579E0,6.529152098E0
8.195053458E0,1.902290992E-2,1.375967264E-1,6.439552784E0,6.441050752E0
8.205061458E0,-4.864048213E-3,7.606305182E-2,6.232539177E0,6.233005201E0
8.215068458E0,9.731406346E-3,9.125052392E-2,6.088228226E0,6.088919796E0
8.225076458E0,2.027113177E-2,1.230300292E-1,6.091188431E0,6.092464510E0
8.235083458E0,7.933772169E-3,1.379357427E-1,6.241974831E0,6.243503744E0
8.245091458E0,-1.409662073E-3,1.046829820E-1,6.496393204E0,6.497236734E0
8.255098458E0,-5.142615177E-3,1.403861195E-1,6.777446747E0,6.778902501E0
8.265106458E0,-1.094084885E-2,8.399288356E-2,6.927711010E0,6.928228803E0
8.275113458E0,-1.526662149E-2,9.892150015E-2,6.884948730E0,6.885676260E0
8.285121458E0,5.644252524E-3,1.319473684E-1,6.792370319E0,6.793654136E0
8.295128458E0,1.943257754E-3,1.131310612E-1,6.634196758E0,6.635161569E0
8.305136458E0,3.275895864E-2,1.606647670E-1,6.450910568E0,6.452994148E0
8.315143458E0,1.397488732E-2,1.467047334E-1,6.282974720E0,6.284702770E0
8.325151458E0,1.111678313E-2,1.375945956E-1,6.149300098E0,6.150849336E0
8.335158458E0,-2.492750436E-2,6.922964752E-2,6.007108212E0,6.007558838E0
8.345166458E0,-3.252630308E-2,2.776423469E-2,5.714451313E0,5.714611327E0
8.355173458E0,-3.229966760E-2,1.481035165E-2,5.476916790E0,5.477032056E0
8.365181458E0,-3.711466491E-2,-3.696309775E-2,5.301601887E0,5.301860648E0
8.375188458E0,-3.508826345E-2,-1.097969990E-2,5.294964790E0,5.295092433E0
8.385196458E0,-1.103565749E-2,2.564302646E-2,5.362552166E0,5.362624832E0
8.395204458E0,1.823940687E-2,7.513600588E-2,5.412523270E0,5.413075488E0
8.405211458E0,6.219248101E-2,2.189954519E-1,5.458674431E0,5.463419575E0
8.415219458E0,3.939422593E-2,1.521716714E-1,5.453623772E0,5.455888595E0
8.425226458E0,9.295979515E-3,8.622860163E-2,5.408663273E0,5.409358574E0
8.435234458E0,2.242536284E-2,1.280205399E-1,5.371844292E0,5.373416348E0
8.445241458E0,1.561725885E-2,9.925918281E-2,5.324918747E0,5.325866685E0
8.455249458E0,-7.377273869E-3,3.017439321E-2,5.259581566E0,5.259673295E0
8.465256458E0,-2.388640307E-3,4.646415263E-2,5.195757389E0,5.195965692E0
8.475264458E0,5.545449443E-3,5.466668680E-2,5.162345409E0,5.162637826E0
8.485271458E0,2.209840110E-3,6.497604400E-2,5.125655651E0,5.126067950E0
8.495279458E0,1.742368005E-2,1.172600240E-1,5.015012741E0,5.016413688E0
8.505286458E0,2.287676930E-2,1.661479473E-1,4.800495148E0,4.803424003E0
8.515294458E0,-1.270279661E-2,3.258668631E-2,4.509023666E0,4.509159309E0
8.525301458E0,-2.747401968E-2,-2.487740666E-2,4.143712997E0,4.143878752E0
8.535309458E0,3.228065744E-2,1.616538614E-1,3.763957500E0,3.767565537E0
8.545316458E0,5.420592800E-2,1.829780638E-1,3.423947573E0,3.429261762E0
8.555324458E0,-1.236111298E-2,4.156686366E-2,3.116340637E0,3.116642355E0
8.565331458E0,-4.109574948E-3,2.484753914E-2,2.812281847E0,2.812394616E0
8.575339458E0,1.741382666E-2,6.032723561E-2,2.592663050E0,2.593423279E0
8.585346458E0,-8.770106360E-3,7.602239959E-3,2.472774744E0,2.472801982E0
8.595354458E0,-5.164719187E-3,2.214709483E-2,2.421594381E0,2.421701162E0
8.605361458E0,3.924649674E-3,3.479710966E-2,2.346941710E0,2.347202937E0
8.615369458E0,1.796243899E-2,7.087069005E-2,2.229606390E0,2.230804778E0
8.625376458E0,2.142454684E-2,6.527565420E-2,2.032354355E0,2.033515219E0
8.635384458E0,1.688838564E-2,5.466615409E-2,1.755588770E0,1.756520861E0
8.645391458E0,4.059139173E-3,2.572079003E-2,1.401670814E0,1.401912660E0
8.655399458E0,-7.049704436E-3,1.773379045E-3,9.644767642E-1,9.645041586E-1
8.665406458E0,-4.029147327E-3,-3.839765443E-3,5.143069029E-1,5.143370181E-1
8.675414458E0,-1.058923663E-3,9.468050674E-3,1.080675498E-1,1.084866840E-1
8.685421458E0,6.007507909E-3,1.434376650E-2,-1.345225377E-3,1.560908133E-2
8.695429458E0,-2.455485519E-3,-2.455454320E-3,-8.448492736E-5,3.473586440E-3
8.705436458E0,-1.619252726E-3,-1.544919563E-3,-8.256426081E-4,2.385464643E-3
8.715444458E0,1.548577333E-3,3.954508342E-3,6.622655783E-4,4.298234949E-3
8.725451458E0,-6.890150253E-4,-3.248331603E-3,-5.272252019E-4,3.362196651E-3
8.735459458E0,6.630718708E-4,2.935794881E-3,-6.587854587E-4,3.080998891E-3
8.745466458E0,-8.336247411E-4,1.189692412E-4,-5.216326099E-4,9.905475602E-4
8.755474458E0,1.076660817E-3,4.207056481E-4,-2.878070809E-4,1.191228221E-3
8.765481458E0,2.484674100E-3,-3.762450069E-5,-3.208303824E-4,2.505584387E-3
8.775489458E0,-2.322827931E-4,-4.362997133E-4,-1.208728179E-3,1.305885350E-3
8.785496458E0,1.737923711E-3,7.983415853E-4,-2.083310392E-3,2.828057690E-3
8.795504458E0,-5.606506020E-4,-9.356425144E-4,-6.783008575E-5,1.092866384E-3
8.805512500E0,-7.990035228E-4,-3.068700898E-4,-1.020176336E-3,1.331666489E-3
8.815519500E0,-1.619257266E-3,1.244421350E-3,4.863736685E-4,2.099318445E-3
8.825527500E0,-1.156399725E-3,9.671861771E-4,4.299145658E-4,1.567653010E-3
8.835534500E0,-7.057928015E-4,-3.524101339E-4,-1.696357504E-5,7.890653610E-4
8.845542500E0,-6.759655662E-4,-6.999527104E-4,1.065877499E-3,1.443245678E-3
8.855549500E0,-1.395285362E-3,4.079223145E-4,-5.780917127E-4,1.564420623E-3
8.865557500E0,3.690589219E-4,1.268123044E-3,9.766619187E-4,1.642622612E-3
8.875564500E0,1.979205990E-3,9.645230602E-4,-1.096342923E-3,2.459579007E-3
8.885572500E0,6.148687098E-4,-3.555660369E-3,1.572070178E-4,3.611855235E-3
8.895579500E0,1.505962340E-3,-1.536185388E-3,9.396437090E-4,2.347491941E-3
8.905587500E0,1.470808638E-3,3.388151526E-6,3.795812372E-4,1.519003438E-3
8.915594500E0,8.649751544E-5,-7.544155233E-5,2.853053156E-4,3.075262121E-4
8.925602500E0,3.637325717E-4,4.942088854E-4,1.894653542E-3,1.991546095E-3
8.935609500E0,-7.745025214E-4,1.284634927E-3,2.490861807E-4,1.520587050E-3
8.945617500E0,-9.486731142E-4,-5.839718506E-5,8.714667056E-4,1.289513524E-3
8.955624500E0,-1.164122950E-3,-3.390945494E-4,-8.129824419E-4,1.459831431E-3
8.965632500E0,-2.081848215E-3,1.898493385E-3,-9.373521898E-4,2.969343067E-3
8.975639500E0,7.301835576E-4,3.107169177E-4,-5.208337680E-4,9.492001078E-4
8.985647500E0,-8.626531344E-4,-3.709201701E-5,-1.325448975E-4,8.735641922E-4
8.995654500E0,-3.816862591E-4,6.635857280E-4,-3.754252102E-4,8.526280005E-4
9.005662500E0,1.418610686E-3,5.946096499E-4,-1.439357875E-3,2.106601055E-3
9.015669500E0,1.166409347E-3,-2.910376526E-3,6.080802996E-4,3.193832172E-3
9.025677500E0,1.520343474E-3,1.068119658E-3,-6.918087602E-4,1.982655604E-3
9.035684500E0,9.245942929E-4,9.016722906E-4,1.449905569E-3,1.941678059E-3
9.045692500E0,-4.338840954E-4,1.128439326E-4,-3.378745168E-4,5.613807536E-4
9.055699500E0,4.782484611E-4,1.334968721E-3,6.855784450E-4,1.575081230E-3
9.065707500E0,-1.123376656E-3,4.542612005E-4,3.348400351E-4,1.257157985E-3
9.075714500E0,8.330168203E-5,6.028658245E-4,4.954284523E-4,7.847520142E-4
9.085722500E0,-1.548683271E-3,-1.659889240E-4,8.315194864E-4,1.765615148E-3
9.095729500E0,-1.208065078E-3,-1.774005592E-3,-1.032501459E-4,2.148761891E-3
9.105737500E0,-1.560401404E-3,-1.004752703E-4,-7.266961038E-4,1.724249126E-3
9.115744500E0,4.300453002E-4,3.911445383E-4,-3.176345490E-4,6.624384626E-4
9.125752500E0,3.024798352E-4,-5.067419261E-5,-2.406691201E-4,3.898506764E-4
9.135759500E0,1.219406258E-3,1.121116569E-3,5.870412569E-4,1.757404741E-3
9.145767500E0,2.483875025E-3,2.928737085E-4,-4.641083069E-4,2.543778031E-3
9.155774500E0,8.694668650E-4,8.489417378E-4,8.837173227E-4,1.502541517E-3
9.165782500E0,1.599173062E-3,1.201011473E-3,-1.139752334E-3,2.301916250E-3
9.175789500E0,1.104357652E-3,1.198881073E-3,-5.048548337E-4,1.706399735E-3
9.185797500E0,6.007539341E-4,-5.018135998E-4,-2.467944287E-4,8.207494553E-4
9.195804500E0,-9.204437956E-4,2.279059263E-3,-7.754319813E-4,2.577328590E-3
9.205812500E0,-1.197146019E-3,2.409422304E-4,-6.417413242E-4,1.379508491E-3
9.215819500E0,1.116608270E-3,-3.721176181E-4,-2.393375617E-4,1.201069531E-3
9.225827500E0,2.918272512E-4,-1.231786096E-3,-1.157668885E-4,1.271165648E-3
9.235835500E0,2.596030245E-4,-3.284418490E-4,-3.594460431E-4,5.517873108E-4
9.245842500E0,1.207155641E-3,-4.149945453E-4,-1.565131824E-4,1.286056605E-3
9.255850500E0,1.077726018E-3,-5.545441527E-4,1.135312486E-4,1.217333944E-3
9.265857500E0,2.179209609E-3,8.790355641E-4,1.725542592E-3,2.915331075E-3
9.275865500E0,1.173067256E-3,-1.380257308E-4,9.268608410E-4,1.501402314E-3
9.285872500E0,-1.028532861E-4,-5.598703865E-4,6.144719664E-4,8.376213020E-4
9.295880500E0,6.306171417E-5,-4.456208553E-4,2.394986805E-4,5.098179522E-4
9.305887500E0,-1.071143197E-4,-7.224571891E-5,-3.538534511E-4,3.767030478E-4
9.315895500E0,-1.793960575E-3,-2.316225320E-3,-3.551850095E-4,2.951160902E-3
9.325902500E0,-1.868795371E-3,3.642465454E-4,-5.025323480E-5,1.904625179E-3
9.335910500E0,-1.019246876E-3,-5.854368210E-4,2.964166924E-5,1.175788712E-3
9.345917500E0,-4.653094802E-4,1.217789715E-3,-2.031186596E-4,1.319386938E-3
9.355925500E0,-1.081298571E-3,-4.919599742E-4,-8.332224097E-4,1.451030944E-3
9.365932500E0,-2.562161535E-5,3.519959282E-4,1.452227589E-4,3.816375903E-4
9.375940500E0,3.573410213E-4,4.079223145E-4,3.827770706E-4,6.637857380E-4
9.385947500E0,4.340399755E-4,-2.549386118E-4,-7.895466406E-4,9.363590624E-4
9.395955500E0,1.667882549E-3,6.902173627E-4,-2.044502180E-4,1.816599046E-3
9.405962500E0,9.666722617E-4,7.932817098E-4,-4.763589241E-4,1.338158794E-3
9.415970500E0,1.902507036E-3,-5.779799540E-4,-6.135117728E-4,2.080862933E-3
9.425977500E0,7.267214824E-4,4.385483917E-4,1.271134242E-4,8.582579026E-4
9.435985500E0,-1.289824024E-3,3.615834285E-4,-2.353428863E-4,1.360064286E-3
9.445992500E0,1.573376358E-4,-6.038127467E-4,4.280505236E-4,7.566850173E-4
9.456000500E0,1.252429443E-3,8.647865616E-5,-5.541231949E-4,1.372264764E-3
9.466007500E0,1.890292624E-4,8.301646449E-5,-9.480046574E-4,9.702250388E-4
9.476015500E0,-1.014453359E-3,2.776936162E-4,-5.538568366E-4,1.188691195E-3
9.486022500E0,-9.109964594E-6,-1.281721052E-4,6.026797928E-5,1.419271268E-4
9.496030500E0,-7.995008491E-5,-9.781215340E-5,-5.903420970E-4,6.037077314E-4
9.506037500E0,3.661294468E-4,2.092502546E-4,-1.381301088E-3,1.444239986E-3
9.516045500E0,2.147784224E-3,-4.341693129E-4,-5.131843500E-5,2.191828836E-3
9.526052500E0,-2.024057554E-3,9.027377237E-4,-9.168458637E-4,2.398405870E-3
9.536060500E0,9.248605929E-4,-5.984862801E-4,-1.507268520E-3,1.866925637E-3
9.546067500E0,8.713310817E-4,8.042005356E-4,-6.159085315E-4,1.336151067E-3
9.556075500E0,1.280392637E-3,-1.502629602E-3,1.326601254E-3,2.378481009E-3
9.566082500E0,1.094237668E-3,1.416059677E-4,-3.509239759E-4,1.157823804E-3
9.576090500E0,1.700373134E-3,-5.417610519E-4,-4.601136316E-4,1.842953712E-3
9.586097500E0,-9.505373891E-4,6.730412133E-5,-4.726306070E-4,1.063687390E-3
9.596105500E0,-2.509250771E-4,-9.391047060E-4,-4.467978142E-4,1.069817428E-3
9.606112500E0,1.001826022E-3,-2.643931657E-5,-1.493226737E-4,1.013238213E-3
9.616120500E0,-1.281301957E-3,-4.432240967E-4,5.223264452E-4,1.452930562E-3
9.626127500E0,9.999617469E-4,9.789040778E-4,-2.186641097E-3,2.596069332E-3
9.636135500E0,2.249517012E-3,-8.529517800E-5,-7.706382312E-4,2.379387598E-3
9.646142500E0,1.550170826E-3,2.143105958E-4,-1.181031344E-3,1.960559527E-3
9.656150500E0,1.664686715E-3,1.477181213E-3,-9.173783474E-4,2.407245153E-3
9.666158500E0,5.727907410E-4,9.426849429E-4,1.681258436E-4,1.115800356E-3
9.676165500E0,1.888658619E-3,-1.854300499E-4,-7.802254986E-4,2.051869272E-3
9.686173500E0,2.035132376E-3,1.679049106E-3,-2.217607107E-4,2.647668315E-3
9.696180500E0,3.563786857E-3,8.260386530E-4,4.375632852E-5,3.658528561E-3
9.706188500E0,5.909232888E-3,1.767998794E-3,2.095721895E-3,6.514361314E-3
9.716195500E0,7.654668763E-3,2.488650149E-3,2.884282731E-5,8.049109600E-3
9.726203500E0,1.398235559E-2,6.252747495E-3,1.697595231E-3,1.541054667E-2
9.736210500E0,-3.083979245E-3,-5.330937915E-3,5.282009952E-4,6.181328605E-3
9.746218500E0,-5.237144884E-3,-1.257366966E-3,1.488270704E-3,5.587808865E-3
9.756225500E0,-1.388344448E-3,2.206074074E-3,-7.727530319E-4,2.718714839E-3
9.766233500E0,-5.499732215E-3,-4.908028059E-3,-1.900069183E-3,7.612230735E-3
9.776240500E0,-3.091435879E-3,1.035614870E-3,-1.051852480E-3,3.425765257E-3
9.786248500E0,-3.012872767E-3,-1.091984799E-3,2.973051742E-4,3.218419407E-3
9.796255500E0,-3.819544334E-3,-3.918131348E-3,3.779986873E-4,5.484847781E-3
9.806262708E0,-6.863351446E-4,7.290849462E-4,1.417430583E-3,1.735433735E-3
9.816269708E0,-5.033758935E-4,-1.738866558E-3,3.951112740E-5,1.810691947E-3
9.826277708E0,9.240783984E-4,9.788894095E-4,4.491051659E-4,1.419098591E-3
9.836284708E0,2.873166231E-4,5.658329464E-4,1.729354262E-4,6.577419151E-4
9.846292708E0,2.323303139E-3,1.434023492E-3,-7.980531082E-4,2.844477037E-3
9.856299708E0,2.215977758E-3,-1.686667092E-4,3.897841088E-5,2.222729223E-3
9.866307708E0,1.650322462E-3,3.149631899E-3,3.178790212E-5,3.555946540E-3
9.876314708E0,1.384006348E-3,6.862077862E-5,-7.967215497E-4,1.598420348E-3
9.886322708E0,-1.154785044E-3,1.851607114E-3,-6.566392258E-4,2.278848937E-3
9.896329708E0,1.797248842E-4,-1.561499666E-4,-4.597636871E-5,2.424823139E-4
9.906337708E0,-2.390491776E-3,-1.379073365E-3,-7.988521829E-4,2.873057446E-3
9.916344708E0,-1.903932309E-3,3.807432950E-4,9.047719650E-4,2.142086833E-3
9.926352708E0,-3.166803159E-3,-1.083462499E-3,-5.668906961E-4,3.394686774E-3
9.936359708E0,1.979489112E-3,3.976543900E-3,7.679522969E-5,4.442654166E-3
9.946367708E0,-1.510397997E-4,-2.611051779E-3,1.264032442E-3,2.904854976E-3
9.956375708E0,2.517980291E-3,1.373569947E-3,-6.289423909E-4,2.936407273E-3
9.966382708E0,2.381093800E-3,1.455862075E-4,-1.485681394E-3,2.810347351E-3
9.976390708E0,3.927777288E-4,-2.318104031E-3,-6.129634567E-4,2.429733492E-3
9.986397708E0,1.610641368E-3,8.830153383E-4,2.557598054E-4,1.854533575E-3
9.996405708E0,2.184552606E-3,-9.684141260E-4,3.670798615E-4,2.417611142E-3
1.000641271E1,8.923867717E-4,3.442582674E-4,-5.221497267E-4,1.089728518E-3
1.001642071E1,-6.688386202E-5,7.932670414E-4,-1.138870139E-4,8.041867333E-4
1.002642771E1,-6.128319073E-4,1.432159450E-3,-8.177605923E-4,1.759368075E-3
1.003643571E1,-1.702597365E-3,-1.020869240E-5,-1.005247002E-3,1.977236339E-3
1.004644271E1,-1.393137965E-3,1.839357428E-4,2.060248516E-5,1.405379027E-3
1.005645071E1,-2.613132354E-3,-1.362295588E-3,1.673626713E-3,3.389002264E-3
1.006645771E1,1.327728387E-5,-7.407136727E-4,-3.844641615E-4,8.346530553E-4
1.007646571E1,3.423658200E-6,-6.520305760E-4,1.779953018E-4,6.758978628E-4
1.008647271E1,-8.980564307E-4,8.947332390E-4,-1.204984030E-3,1.749010987E-3
1.009648071E1,-3.489125520E-4,-1.411830308E-3,-1.456386643E-3,2.058170751E-3
1.010648771E1,7.608266314E-4,1.658261754E-4,4.054293968E-4,8.779114302E-4
1.011649571E1,1.357641071E-3,1.395407598E-3,1.652124338E-4,1.953879933E-3
1.012650271E1,1.271354617E-3,1.881970093E-5,6.866590120E-4,1.445059632E-3
1.013651071E1,1.063361764E-3,-4.887788091E-4,-1.367903315E-4,1.178284584E-3
1.014651771E1,2.026280854E-4,2.286769450E-4,-5.615644623E-4,6.393011273E-4
1.015652571E1,2.331292722E-3,-5.921092816E-5,1.271290239E-4,2.335507114E-3
1.016653271E1,2.058318816E-3,1.911264844E-4,-2.896557562E-4,2.087368233E-3
1.017654071E1,7.717455737E-4,2.089696936E-4,-2.270713449E-4,8.311563987E-4
1.018654771E1,-9.143017232E-4,-1.939667854E-4,-5.820707884E-4,1.101079996E-3
1.019655571E1,4.039630294E-4,2.118991688E-4,7.543032989E-4,8.815105522E-4
1.020656271E1,-1.159312436E-3,1.107786316E-3,-8.161626756E-4,1.799254668E-3
1.021657071E1,-1.995811472E-3,4.467898980E-4,-1.516574062E-3,2.546150335E-3
1.022657771E1,-2.644904889E-4,-1.047505066E-5,1.516766381E-3,1.539689968E-3
1.023658571E1,-4.684885498E-4,7.125730626E-4,2.480363473E-4,8.881238205E-4
1.024659271E1,-2.892578486E-4,-3.673385363E-4,8.132262155E-5,4.745746222E-4
1.025660071E1,-1.035741763E-3,-3.966332879E-4,-2.007060684E-4,1.127103319E-3
1.026660771E1,2.151449444E-4,-2.029950032E-3,3.471737728E-5,2.041614502E-3
1.027661571E1,1.497457037E-3,2.387966961E-4,1.431079581E-4,1.523115664E-3
1.028662371E1,4.044956295E-4,-1.367089339E-3,3.854557872E-4,1.476863615E-3
1.029663071E1,4.140830133E-4,4.830085672E-4,9.277416393E-5,6.429378379E-4
1.030663871E1,-1.106049400E-3,1.059053466E-4,1.644065604E-3,1.984316740E-3
1.031664571E1,2.391133457E-4,1.365314238E-3,-3.383916337E-4,1.426803090E-3
1.032665371E1,-6.660951767E-4,-5.689398386E-4,-2.467120066E-5,8.763469590E-4
1.033666071E1,9.203499649E-4,2.393294126E-4,-1.261376310E-4,9.592879273E-4
1.034666871E1,6.985086948E-4,-5.564230960E-4,1.237667166E-3,1.526217898E-3
1.035667571E1,5.645516794E-4,1.122965477E-4,-1.113903942E-3,1.253838548E-3
1.036668371E1,1.567498082E-3,-1.102104783E-3,5.811979063E-4,2.002367648E-3
1.037669071E1,2.953060903E-4,-1.009160420E-3,-7.820059545E-5,1.054384073E-3
1.038669871E1,-5.707538221E-4,-3.228636924E-4,-8.432590403E-5,6.611442713E-4
1.039670571E1,-4.229485057E-4,-1.441657776E-3,-6.225507241E-4,1.626293942E-3
1.040671371E1,8.660214953E-4,3.533125855E-4,2.216710709E-4,9.612289410E-4
1.041672071E1,-9.209595155E-4,-2.775900066E-4,9.039728902E-4,1.319996071E-3
1.042672871E1,-1.650665654E-3,-3.817195538E-4,3.231377341E-4,1.724768075E-3
1.043673571E1,-3.355967347E-4,1.525636297E-3,-2.837968059E-4,1.587681298E-3
1.044674371E1,3.882503370E-4,-5.734665319E-5,5.803988315E-4,7.006352592E-4
1.045675071E1,-2.711935434E-3,5.392013118E-4,2.357861958E-4,2.775054411E-3
1.046675871E1,-5.497150123E-4,-6.677431520E-4,-8.523815777E-4,1.214340095E-3
1.047676571E1,-3.320201300E-3,-4.488313571E-4,1.101313159E-3,3.526765790E-3
1.048677371E1,-1.771387178E-4,-1.869627740E-3,2.557598054E-4,1.895336142E-3
1.049678071E1,-8.632487152E-5,-5.010291934E-4,-2.467120066E-5,5.090097290E-4
1.050678871E1,-7.449246477E-4,-7.257999387E-4,-4.837336019E-5,1.041171582E-3
1.051679571E1,-1.823771279E-3,1.384488773E-3,-2.427841537E-4,2.302584415E-3
1.052680371E1,-1.365707489E-3,5.322773941E-4,-2.999743447E-5,1.466075037E-3
1.053681071E1,-2.447830047E-4,-8.970412891E-4,-1.412710641E-3,1.691257860E-3
1.054681871E1,-6.575728767E-4,-5.510966294E-4,5.596261472E-4,1.024349065E-3
1.055682571E1,-1.859457465E-3,-9.500382002E-4,8.951844648E-4,2.271895656E-3
1.056683371E1,-1.147860894E-3,-1.365225064E-3,1.862510107E-4,1.793352599E-3
1.057684171E1,-1.056780806E-3,-4.086175468E-4,-3.826001193E-4,1.195883281E-3
1.058684871E1,-1.708456315E-3,-1.518090488E-3,-5.554391537E-4,2.352006455E-3
1.059685671E1,-8.101721760E-4,-1.103436342E-3,1.423023175E-3,1.974574808E-3
1.060686371E1,3.964256030E-5,8.683679625E-4,1.552186441E-3,1.779021416E-3
1.061687171E1,1.211433439E-3,-1.610502135E-3,-3.437178675E-4,2.044365446E-3
1.062687871E1,1.741402550E-3,-1.212892123E-3,1.421105117E-5,2.122213961E-3
1.063688671E1,1.226347173E-3,5.306792445E-4,-7.634321228E-4,1.538953038E-3
1.064689371E1,-1.358597074E-4,-7.953085005E-4,3.444431350E-4,8.772767775E-4
1.065690171E1,-3.230799921E-4,-6.933091208E-5,-1.408449607E-3,1.446692003E-3
1.066690871E1,-2.767408732E-4,-1.473608427E-5,-6.861332804E-5,2.855003536E-4
1.067691671E1,-6.122991908E-4,3.338716924E-4,4.560295492E-4,8.332727980E-4
1.068692371E1,-1.218168298E-3,1.366379205E-3,-3.825337626E-5,1.830953155E-3
1.069693171E1,3.347208258E-4,-9.255371988E-4,7.972470485E-5,9.874275498E-4
1.070693871E1,5.040979013E-4,-1.307700761E-3,1.015625894E-4,1.405172919E-3
1.071694671E1,-9.166984819E-4,-1.307700761E-3,-1.509049907E-4,1.604116487E-3
1.072695371E1,3.111816477E-5,-4.650857300E-4,1.292352099E-4,4.837094333E-4
1.073696171E1,1.016221475E-3,-1.069889637E-3,1.715791877E-4,1.485533351E-3
1.074696871E1,5.901156692E-4,3.122908529E-4,1.260393765E-4,6.794468369E-4
1.075697671E1,-3.132285783E-4,-6.634911988E-4,-4.094094038E-5,7.348529606E-4
1.076698371E1,5.551730283E-6,-9.122304618E-4,-3.032621462E-4,9.613340556E-4
1.077699171E1,-7.252196083E-4,-2.585760783E-3,-9.580189362E-5,2.687243999E-3
1.078699871E1,-1.102056936E-3,-4.704119638E-4,6.824871525E-5,1.200197814E-3
1.079700671E1,5.941103445E-4,-4.935816396E-4,2.036857186E-3,2.178388655E-3
1.080701488E1,-5.350698484E-4,2.038552193E-3,1.366918441E-4,2.112032066E-3
1.081702288E1,1.190024195E-4,-9.766789153E-4,-2.886147704E-4,1.025359335E-3
1.082702987E1,-8.541165153E-4,-2.778654452E-4,-1.627918566E-3,1.859258746E-3
1.083703788E1,-2.067022724E-4,9.919295553E-4,-1.051610569E-3,1.460320122E-3
1.084704488E1,7.445790106E-4,-7.732934318E-5,-1.056137960E-3,1.294528919E-3
1.085705287E1,1.328508370E-4,-4.451118875E-4,-1.346841455E-4,4.836463133E-4
1.086705988E1,8.982433937E-4,-4.887878895E-4,2.416206989E-4,1.050778453E-3
1.087706788E1,4.683074076E-5,1.226740424E-4,-4.406813532E-4,4.598283310E-4
1.088707488E1,-1.129588345E-4,-7.726808544E-4,1.308216481E-3,1.523556944E-3
1.089708288E1,-6.274814950E-4,-1.192661235E-3,-2.034317004E-3,2.440208909E-3
1.090708987E1,-7.427964592E-4,-1.138332766E-3,-1.872929395E-3,2.314176438E-3
1.091709788E1,6.786978338E-5,-3.572276328E-4,-4.215065856E-4,5.566737741E-4
1.092710588E1,1.222083811E-3,6.622301880E-4,-2.547926269E-4,1.413137270E-3
1.093711287E1,7.850590628E-4,-6.570995320E-4,8.687947411E-4,1.342721799E-3
1.094712088E1,-8.043154376E-4,-1.862526406E-4,3.153902944E-4,8.837897980E-4
1.095712788E1,3.288595472E-4,-6.424521562E-4,6.173925940E-4,9.497720726E-4
1.096713587E1,-2.358003519E-3,-2.264664508E-4,-1.365597127E-3,2.734286592E-3
1.097714288E1,-6.820763228E-4,-6.576322485E-4,-3.147139214E-4,9.983752485E-4
1.098715088E1,-1.853968715E-4,4.766078200E-4,-9.469483048E-4,1.076214712E-3
1.099715788E1,-2.951190108E-4,1.056112116E-3,1.365208300E-3,1.751074451E-3
1.100716588E1,4.779965384E-4,-1.398789929E-3,2.607952338E-4,1.501035679E-3
1.101717287E1,-7.577101933E-4,1.052117208E-3,-4.995372146E-4,1.389464928E-3
1.102718088E1,-5.965888267E-4,-2.142158337E-4,1.187841641E-3,1.346393113E-3
1.103718788E1,-4.413266433E-4,1.568503911E-3,3.529407550E-4,1.667195520E-3
1.104719587E1,-8.125713794E-4,-1.452399883E-4,-8.894240018E-4,1.213442193E-3
1.105720288E1,3.134132130E-4,-1.218494028E-3,-2.635810524E-4,1.285468984E-3
1.106721088E1,3.019615542E-4,-4.712110385E-4,-4.425456282E-4,7.134894926E-4
1.107721788E1,-3.635623725E-4,-5.857269280E-4,-6.950132083E-4,9.789264490E-4
1.108722588E1,8.396538324E-4,-8.025881834E-5,1.326858765E-3,1.572264042E-3
1.109723287E1,-1.921562944E-5,-1.017159084E-3,-1.195040531E-4,1.024335424E-3
1.110724088E1,-4.265143070E-5,-9.977179579E-4,1.958140638E-4,1.017646017E-3
1.111724788E1,-2.105802298E-3,-5.013046321E-4,-6.755720824E-4,2.267621505E-3
1.112725587E1,7.658842951E-4,-2.011663746E-4,4.868975375E-4,9.295783322E-4
1.113726288E1,-1.542378450E-4,1.443868270E-3,-8.558682166E-4,1.685543028E-3
1.114727088E1,8.543012082E-4,-1.577221788E-3,-6.188468542E-4,1.897480053E-3
1.115727788E1,1.652716892E-3,-1.766653731E-4,-1.393027836E-3,2.168688620E-3
1.116728588E1,9.360602708E-4,-4.413835704E-4,4.141933750E-4,1.114712716E-3
1.117729287E1,7.336600684E-4,4.558356013E-4,-5.360224750E-4,1.016544778E-3
1.118730088E1,4.697407130E-4,2.473096829E-4,-3.749013413E-4,6.498995556E-4
1.119730788E1,3.802585416E-4,-5.700143520E-4,1.548014116E-4,7.024787519E-4
1.120731587E1,1.487068250E-3,-1.041926444E-3,1.238708152E-3,2.198040168E-3
1.121732288E1,-1.106178388E-6,4.747437779E-4,-8.648098446E-5,4.825576017E-4
1.122733088E1,6.732062902E-4,1.555454684E-3,6.187239196E-4,1.804290795E-3
1.123733788E1,1.402113470E-3,7.261463907E-4,-1.328198705E-4,1.584566781E-3
1.124734588E1,-1.566348365E-4,-3.827940673E-4,5.619989242E-4,6.977883352E-4
1.125735287E1,-5.553100491E-4,-5.148868077E-4,6.744987331E-5,7.602809749E-4
1.126736088E1,5.802619271E-4,9.434602689E-4,-1.174914883E-3,1.614696927E-3
1.127736788E1,1.752052805E-3,1.362559851E-4,-9.059356526E-4,1.977112575E-3
1.128737587E1,1.333835535E-4,1.360777533E-3,-2.223020419E-4,1.385252635E-3
1.129738288E1,7.958768401E-5,4.406555090E-4,5.337691400E-4,6.967215885E-4
1.130739088E1,1.199446851E-3,2.132561756E-3,-4.822267219E-4,2.493799311E-3
1.131739887E1,6.540315226E-4,3.642227966E-4,-1.507810084E-3,1.683421138E-3
1.132740588E1,9.379244875E-4,-9.064516053E-5,2.309298841E-3,2.494149159E-3
1.133741388E1,-1.035744208E-3,1.596917864E-4,-4.896835890E-4,1.156744375E-3
1.134742088E1,7.179473760E-4,-7.322006859E-4,7.890141569E-5,1.028490016E-3
1.135742888E1,-3.491813550E-4,-7.745451294E-4,-9.661230724E-4,1.286561917E-3
1.136743587E1,8.021033136E-4,5.556247197E-5,3.683867399E-4,8.844013253E-4
1.137744388E1,-2.399916993E-4,-2.003675327E-4,5.028767046E-4,5.921386188E-4
1.138745088E1,6.915820995E-4,-3.793318756E-4,-3.195074387E-4,8.510367064E-4
1.139745887E1,5.837240024E-4,-6.139564794E-4,2.118083881E-3,2.281218007E-3
1.140746588E1,1.973361475E-3,1.053448534E-3,-1.764958724E-4,2.243893963E-3
1.141747388E1,1.205039443E-3,-1.657649176E-3,-1.537903678E-3,2.562238977E-3
1.142748088E1,-2.554379171E-4,8.768809494E-4,-1.851357752E-3,2.064387138E-3
1.143748888E1,4.143470433E-4,3.058996517E-4,-9.607966058E-4,1.090132188E-3
1.144749587E1,-6.432412192E-6,-2.091559581E-4,3.255100455E-4,3.869681905E-4
1.145750388E1,-2.248116070E-4,-1.052925363E-4,1.022192882E-3,1.051905445E-3
1.146751088E1,-1.106178388E-6,-3.441781737E-4,1.178520499E-3,1.227750139E-3
1.147751887E1,1.497987192E-3,1.343919430E-4,1.822321210E-4,1.515003422E-3
1.148752588E1,-4.786109785E-4,1.650529681E-3,-5.261688493E-4,1.797267469E-3
1.149753388E1,5.403144751E-4,1.573830610E-3,7.561433595E-4,1.827740491E-3
1.150754088E1,9.107602527E-4,8.686252404E-4,7.561433595E-4,1.468246174E-3
1.151754888E1,1.190024195E-4,-1.154127531E-4,1.057346584E-3,1.070263275E-3
1.152755587E1,-2.093653893E-4,-2.997033298E-4,5.809071008E-4,6.863738135E-4
1.153756388E1,-8.663671324E-4,-1.168160234E-3,-5.006024148E-4,1.538113493E-3
1.154757088E1,-3.190875286E-4,1.367887016E-4,6.159092300E-5,3.525924582E-4
1.155757887E1,-9.273536270E-4,9.264161345E-4,-7.962132804E-4,1.533684189E-3
1.156758588E1,-5.939257098E-4,1.202585874E-3,-2.436074428E-4,1.363196655E-3
1.157759388E1,4.180754768E-4,1.202772837E-4,-4.337572027E-4,6.143281209E-4
1.158760087E1,1.624119468E-4,2.552994993E-4,-1.533261966E-4,3.392114346E-4
1.159760888E1,-1.666380675E-3,1.052916283E-3,1.093299361E-3,2.254054290E-3
1.160761588E1,-1.704197726E-3,1.935141627E-4,3.872953821E-4,1.758333112E-3
1.161762388E1,-6.517163711E-4,4.630258773E-4,9.887502529E-5,8.055454438E-4
1.162763088E1,-2.865969436E-4,1.130680321E-3,-8.062203415E-5,1.169220128E-3
1.163763887E1,1.186131034E-3,-3.457760904E-4,-5.219078157E-4,1.341214264E-3
1.164764588E1,2.159414580E-4,-2.693433780E-4,9.407002944E-4,1.002044716E-3
1.165765388E1,-9.848779300E-4,1.523763174E-3,3.183197696E-4,1.842054892E-3
1.166766087E1,-2.796727931E-4,1.095792977E-3,-3.128496464E-4,1.173394231E-3
1.167766888E1,-7.750206860E-4,-7.329997607E-4,-9.661230724E-4,1.439214891E-3
1.168767588E1,-2.458506497E-4,7.266791072E-4,-3.927445505E-4,8.618313923E-4
1.169768388E1,-2.708843676E-4,3.407869954E-4,8.458916564E-4,9.513394826E-4
1.170769088E1,4.630828043E-4,-1.686757896E-4,-3.000665456E-4,5.770070515E-4
1.171769887E1,-1.360916183E-3,3.794028889E-4,4.131279420E-4,1.471976259E-3
1.172770688E1,6.840020651E-4,2.432577312E-4,6.054127589E-4,9.452818402E-4
1.173771388E1,-1.304313890E-3,1.306063496E-4,9.199320339E-4,1.601426766E-3
1.174772187E1,1.218087273E-4,7.732268423E-4,1.209834591E-4,7.920568875E-4
1.175772888E1,-2.182769822E-4,6.941310130E-4,2.999478020E-4,7.870396357E-4
1.176773688E1,-1.077557681E-4,-2.105447929E-4,-3.599834163E-4,4.307301654E-4
1.177774388E1,6.587019889E-4,2.174251713E-4,4.504164681E-4,8.270652997E-4
1.178775188E1,2.238078741E-4,8.525890298E-4,-1.270251814E-3,1.546136375E-3
1.179775888E1,3.934511915E-4,1.441882923E-4,1.080520451E-3,1.158929915E-3
1.180776658E1,3.819996491E-4,4.190267064E-4,3.340365365E-4,6.580938537E-4
1.181777358E1,-2.315927995E-4,3.721551038E-4,-1.406073105E-3,1.472812351E-3
1.182778158E1,-5.264045903E-4,-1.394383144E-4,-8.814302273E-4,1.036081117E-3
1.183778858E1,-1.187667600E-3,2.834717743E-4,-3.099159803E-4,1.259745407E-3
1.184779658E1,-1.440135180E-3,-2.073489595E-4,-3.048558719E-4,1.486579978E-3
1.185780358E1,-1.656650216E-3,-1.801846083E-4,4.024794325E-4,1.714335476E-3
1.186781158E1,-5.306656240E-4,-3.349143080E-4,-3.005948383E-4,6.957951243E-4
1.187781858E1,-1.654785941E-3,5.652341060E-4,-3.694184124E-5,1.749048543E-3
1.188782658E1,1.223414438E-4,1.377966255E-4,-4.129803274E-4,4.522257066E-4
1.189783358E1,-3.559623146E-4,-4.576861393E-4,-4.899455234E-4,7.590997217E-4
1.190784158E1,-9.762124391E-4,-5.022250116E-5,-8.854251355E-4,1.318897531E-3
1.191784858E1,-1.187401242E-3,-2.188005019E-4,1.188530587E-4,1.213227686E-3
1.192785658E1,5.199513398E-4,-2.944981679E-5,9.062350728E-5,5.286107335E-4
1.193786358E1,-3.216074547E-4,-1.312826993E-3,4.694773816E-5,1.352460779E-3
1.194787158E1,5.359302741E-4,-9.860571008E-4,1.449519768E-4,1.131609889E-3
1.195787858E1,-3.125529038E-4,-1.663831761E-3,2.299067564E-4,1.708473753E-3
1.196788658E1,-2.310600830E-4,6.455974653E-5,-1.445335802E-4,2.800833423E-4
1.197789358E1,-5.674172426E-4,3.588390537E-4,-3.301559482E-4,7.481515513E-4
1.198790158E1,3.697490320E-4,1.243008766E-3,-3.629128914E-4,1.346659165E-3
1.199790858E1,1.906126738E-3,-9.418486152E-4,-5.011309404E-4,2.184383248E-3
1.200791658E1,1.474970486E-5,-1.634068321E-4,-1.034562010E-3,1.047491241E-3
1.201792358E1,1.471088035E-4,-9.868561756E-4,-1.096462365E-4,1.003767109E-3
1.202793158E1,-7.327996427E-4,1.242146827E-4,-1.263594022E-3,1.465979009E-3
1.203793858E1,4.360617604E-4,-6.225358229E-4,-2.268252429E-4,7.931900154E-4
1.204794658E1,-3.913823748E-4,-1.215089113E-3,1.423535403E-3,1.912086493E-3
1.205795358E1,1.077350928E-3,7.322141901E-4,-3.101823386E-4,1.339042839E-3
1.206796158E1,-8.084332803E-4,1.489822753E-4,6.762524135E-4,1.064461091E-3
1.207796858E1,-2.275978914E-4,5.298140459E-4,3.329711035E-4,6.658629582E-4
1.208797658E1,-4.819297465E-4,-3.136091400E-4,3.617331386E-4,6.793068797E-4
1.209798358E1,2.531026257E-4,4.408643581E-4,-4.759454168E-5,5.105757160E-4
1.210799158E1,2.353813034E-5,1.777443103E-4,1.785079949E-4,2.530062997E-4
1.211799858E1,-2.715400187E-4,1.325566787E-3,-2.708821557E-5,1.353364349E-3
1.212800658E1,-1.047318918E-3,-3.114785068E-4,1.027523540E-3,1.499900130E-3
1.213801358E1,-8.640935412E-4,1.066441182E-3,-1.117120031E-3,1.769720771E-3
1.214802158E1,-1.660644892E-3,2.405946143E-4,-1.836972544E-3,2.487990223E-3
1.215802958E1,6.251462037E-4,-4.315869883E-4,8.656033315E-4,1.151670192E-3
1.216803658E1,-1.556925708E-4,5.284184590E-5,7.357937284E-5,1.801287356E-4
1.217804458E1,3.359268885E-4,7.740259171E-4,2.457713708E-5,8.441368552E-4
1.218805158E1,-1.234683441E-4,-1.799182501E-4,1.156953163E-3,1.177351108E-3
1.219805958E1,-6.928521907E-4,2.858685330E-4,-4.902118817E-4,8.955850966E-4
1.220806658E1,9.660308133E-4,-4.569510929E-5,-3.314875066E-4,1.022344141E-3
1.221807458E1,4.861291964E-4,-5.368446000E-5,-1.542693237E-3,1.618365237E-3
1.222808158E1,9.740203386E-4,-1.662766328E-3,-1.330439234E-3,2.341703661E-3
1.223808958E1,-1.067292760E-3,-1.085393131E-3,5.196589045E-4,1.608489186E-3
1.224809658E1,-1.276350697E-3,-3.937701695E-4,8.371076547E-4,1.576348715E-3
1.225810458E1,-9.035082767E-4,2.965210006E-4,1.181720756E-3,1.516811081E-3
1.226811158E1,-9.431893704E-4,-8.750660345E-5,-1.629245933E-3,1.884597014E-3
1.227811958E1,-1.203646534E-3,5.058455281E-4,7.004872896E-4,1.481663633E-3
1.228812658E1,1.272028079E-3,-9.230035357E-5,-4.095181357E-4,1.339507332E-3
1.229813458E1,1.395074651E-5,7.431334816E-4,-7.970081642E-4,1.089799986E-3
1.230814158E1,5.629495718E-5,-1.551508904E-4,-1.357451547E-4,2.136999485E-4
1.231814958E1,-8.102975553E-4,2.581714652E-4,-1.567841973E-4,8.647635041E-4
1.232815658E1,-9.237482445E-4,5.796151236E-4,-1.155051868E-4,1.096633922E-3
1.233816458E1,-4.017687170E-4,-2.097660676E-3,6.525502540E-4,2.233253287E-3
1.234817158E1,-6.497089053E-4,2.563074231E-4,5.239197053E-4,8.731019496E-4
1.235817958E1,-6.608943222E-4,7.585794665E-4,-3.972675186E-4,1.081686458E-3
1.236818658E1,-8.558375994E-4,-1.039054012E-3,-5.751666613E-4,1.463867455E-3
1.237819458E1,9.431276703E-4,7.969290018E-4,-3.506622743E-4,1.283569113E-3
1.238820158E1,1.619037939E-3,-1.067549922E-3,-9.639882483E-4,2.165691582E-3
1.239820958E1,4.778733710E-4,-1.644720323E-4,2.564233728E-5,5.060351150E-4
1.240821658E1,-3.240044462E-4,7.010553963E-4,5.979556590E-4,9.767335973E-4
1.241822458E1,-2.646014560E-3,-5.506302696E-4,-2.276243176E-4,2.712268345E-3
1.242823158E1,-1.325231278E-4,6.824131124E-4,1.013675239E-3,1.229140971E-3
1.243823958E1,-1.026546233E-3,-1.865762752E-4,-8.010028396E-4,1.315375773E-3
1.244824658E1,5.815923214E-5,-1.480244100E-5,-2.191022504E-4,2.271726319E-4
1.245825458E1,1.244597486E-3,-1.831140835E-4,-8.713102434E-4,1.530272920E-3
1.246826158E1,5.124944728E-4,5.271509290E-4,-1.045861281E-4,7.426149371E-4
1.247826958E1,-9.218812920E-6,-1.334132394E-3,-7.072596345E-4,1.510036563E-3
1.248827658E1,-5.964458687E-4,1.798277721E-3,-2.111126669E-4,1.906336537E-3
1.249828458E1,1.014234032E-3,3.444580361E-4,-5.240340251E-4,1.192448603E-3
1.250829158E1,-6.670196308E-4,-3.927049693E-4,3.736023791E-5,7.749375253E-4
1.251829958E1,-4.563635448E-4,-1.340790186E-3,2.366294619E-3,2.757777408E-3
1.252830658E1,8.216875140E-4,-1.562163234E-4,-7.384186611E-4,1.115722201E-3
1.253831458E1,6.375182420E-5,-1.328805927E-3,-1.031020656E-5,1.330374304E-3
1.254832158E1,3.601616481E-4,-4.948582500E-6,-7.256353274E-4,8.101157508E-4
1.255832958E1,1.074954169E-3,-2.025552094E-4,9.348457679E-4,1.438920320E-3
1.256833658E1,-6.541144103E-5,7.386058569E-4,-3.134924918E-5,7.421590422E-4
1.257834458E1,8.693580749E-4,6.097089499E-4,-1.167453825E-3,1.578124488E-3
1.258835158E1,8.632328245E-4,-7.855212316E-4,2.229823731E-4,1.188248986E-3
1.259835958E1,4.563018447E-4,-2.358650323E-3,-7.253689691E-4,2.509502513E-3
1.260836658E1,5.961178103E-4,2.677589655E-4,6.345915608E-5,6.565655884E-4
1.261837458E1,-7.580997190E-4,-6.034248509E-5,6.517516449E-4,1.001567075E-3
1.262838158E1,-1.098451554E-3,-2.845805138E-4,-1.313927583E-3,1.736083978E-3
1.263838958E1,6.641505752E-5,-1.144515350E-3,-1.321118092E-3,1.749193917E-3
1.264839658E1,-1.362515613E-4,-1.697982661E-4,-3.405422904E-4,4.041843523E-4
1.265840458E1,-1.987139694E-5,-1.073408872E-3,5.167294294E-4,1.191474205E-3
1.266841258E1,-4.640867701E-4,-1.583138015E-3,-7.069932763E-4,1.794865454E-3
1.267841958E1,-7.554366020E-4,-6.614178419E-4,-3.232317977E-4,1.054816011E-3
1.268842758E1,-6.715470226E-4,6.927996874E-4,1.176394057E-3,1.521463042E-3
1.269843458E1,-2.797959605E-4,-9.496347047E-5,-6.220384967E-4,6.886477558E-4
1.270844258E1,-2.947096946E-4,4.464569502E-4,-9.286822751E-5,5.429568308E-4
1.271844958E1,-1.130942139E-3,-8.617504500E-5,3.718533553E-4,1.193621036E-3
1.272845758E1,9.747087606E-4,5.138472188E-4,-1.397405053E-3,1.779560905E-3
1.273846458E1,-9.736599168E-4,4.310228396E-4,-4.967239220E-4,1.174959138E-3
1.274847258E1,-6.077416474E-4,-4.046771210E-4,-6.538506132E-4,9.801194348E-4
1.275847958E1,6.407484179E-4,-5.122688599E-4,-1.920585055E-4,8.425345034E-4
1.276848758E1,5.075903609E-4,7.415912114E-5,-8.435454220E-7,5.129797865E-4
1.277849458E1,-6.632099394E-5,7.537978236E-4,-3.324069548E-4,8.265010688E-4
1.278850258E1,3.080470255E-3,-1.080010552E-4,-6.032504607E-4,3.140839432E-3
1.279850958E1,-4.458214389E-4,2.155730035E-4,-4.932619631E-4,6.989533887E-4
1.280851721E1,9.134560823E-4,-8.270097896E-5,7.160797250E-4,1.163620058E-3
1.281852421E1,-4.306413466E-4,5.125154275E-4,2.825169358E-4,7.265946958E-4
1.282853221E1,1.108133118E-3,4.464692902E-4,-1.004322432E-3,1.560755388E-3
1.283853921E1,4.681755090E-4,1.330149826E-4,4.705360625E-4,6.769678566E-4
1.284854721E1,-8.071074262E-7,-1.386273652E-4,8.985062595E-4,9.091378863E-4
1.285855421E1,6.785652367E-4,-1.871280023E-3,9.075605776E-4,2.187648488E-3
1.286856221E1,-3.803075524E-4,-1.089375932E-3,-6.013861857E-4,1.301168359E-3
1.287856921E1,-2.399591031E-4,-1.609979663E-4,-3.798112739E-4,4.772392692E-4
1.288857721E1,1.057051122E-6,4.307564814E-4,-5.609062500E-4,7.072256252E-4
1.289858421E1,-4.871004494E-4,-5.945605226E-4,-1.682247967E-5,7.687991016E-4
1.290859221E1,7.486137562E-3,1.641212031E-2,-1.063046511E-4,1.803915878E-2
1.291859921E1,6.229905039E-2,1.233156621E-1,-4.557112698E-4,1.381598056E-1
1.292860721E1,-2.377857454E-2,-2.194032818E-2,-2.021383727E-3,3.241735029E-2
1.293861421E1,-1.642645919E-3,8.094002493E-3,-1.365447184E-3,8.371117487E-3
1.294862221E1,-4.770528525E-3,-6.250049453E-3,2.859791275E-4,7.867836084E-3
1.295862921E1,-1.787521993E-3,-7.092939690E-3,-1.459190389E-3,7.458838040E-3
1.296863721E1,-1.178989536E-3,-3.914190922E-3,-2.477185335E-4,4.095396363E-3
1.297864421E1,-3.092204221E-3,-7.500669919E-3,1.509566791E-4,8.114466347E-3
1.298865221E1,-1.299098250E-3,1.226288732E-4,-5.089745391E-4,1.400624570E-3
1.299865921E1,7.728751749E-3,1.729469188E-2,1.722754212E-3,1.902124740E-2
1.300866721E1,-7.758595515E-3,-1.819406077E-2,-2.189562656E-4,1.978048517E-2
1.301867421E1,-2.611503936E-3,-4.400484264E-3,-7.345443591E-4,5.169503843E-3
1.302868221E1,-5.351097789E-3,-9.396041743E-3,-3.632996231E-4,1.081904962E-2
1.303868921E1,2.890853211E-3,3.817498451E-3,2.004916314E-4,4.792757412E-3
1.304869721E1,2.687387634E-3,4.395403899E-3,-4.549124278E-4,5.171902266E-3
1.305870421E1,4.683427047E-3,7.224746048E-3,1.340590650E-3,8.713703441E-3
1.306871221E1,-1.559821540E-3,-4.590101074E-3,1.781210303E-4,4.851164624E-3
1.307871921E1,1.424250426E-3,-2.560239751E-3,-9.643752128E-4,3.084369694E-3
1.308872721E1,-3.223943710E-2,-7.712794840E-2,2.401327947E-3,8.362934955E-2
1.309873421E1,1.752492413E-2,3.962955996E-2,-1.229093410E-3,4.334899837E-2
1.310874221E1,-8.449419402E-3,-2.377098612E-2,1.256701304E-3,2.525929072E-2
1.311874921E1,1.884710859E-3,4.681161605E-3,-9.806205053E-4,5.140722281E-3
1.312875721E1,-7.150670281E-4,2.516277833E-3,-2.365331165E-4,2.626580077E-3
1.313876421E1,-2.973161172E-3,-4.003939219E-3,-3.087047953E-4,4.996650405E-3
1.314877221E1,7.251705974E-4,3.383402945E-3,-6.863411982E-4,3.527655330E-3
1.315877921E1,-2.022678964E-3,-4.227911122E-3,-5.393347237E-4,4.717769027E-3
1.316878721E1,8.942813147E-4,1.141068060E-4,-7.065811660E-4,1.145432834E-3
1.317879421E1,-1.607225859E-3,-1.048363280E-3,-6.248219870E-4,2.018079047E-3
1.318880221E1,1.982182497E-3,1.511733746E-3,1.507837093E-3,2.913410213E-3
1.319880921E1,1.820528763E-3,-2.983415965E-3,1.007961808E-3,3.637455540E-3
1.320881721E1,-2.764443634E-4,5.956061650E-4,-1.908731996E-3,2.018520751E-3
1.321882421E1,2.066531451E-4,6.667126436E-4,-9.760931134E-4,1.199987099E-3
1.322883221E1,-2.063957974E-3,-7.974933833E-4,-1.901942305E-4,2.220831390E-3
1.323884021E1,-5.965562304E-4,-2.717855386E-4,4.433717113E-4,7.914070947E-4
1.324884721E1,-9.885736508E-4,-5.098721012E-4,-4.647660535E-4,1.205510227E-3
1.325885421E1,-7.028164109E-4,-1.998799853E-4,4.443037324E-5,7.320361836E-4
1.326886221E1,7.265021559E-4,-7.285175379E-4,-1.309392974E-5,1.028938597E-3
1.327887021E1,8.947414346E-3,1.463659015E-2,-1.301531214E-3,1.720406865E-2
1.328887721E1,3.473286517E-3,4.638817161E-3,-7.374738343E-4,5.841764420E-3
1.329888521E1,3.501249710E-3,4.867848940E-3,2.369766589E-4,6.000904996E-3
1.330889221E1,1.454077777E-3,3.440128407E-3,-7.887417451E-5,3.735645429E-3
1.331890021E1,1.341692405E-3,3.775154008E-3,2.326226560E-3,4.632845378E-3
1.332890721E1,2.383787185E-3,4.961858504E-3,1.977619017E-3,5.849227139E-3
1.333891521E1,1.132367877E-3,2.154886955E-3,5.455035716E-5,2.434906680E-3
1.334892221E1,3.761174157E-3,3.098977497E-3,2.729294356E-4,4.881043233E-3
1.335893021E1,8.261044277E-4,3.744527930E-3,4.471002612E-4,3.860548742E-3
1.336893721E1,2.596307546E-3,3.075808054E-3,2.769243438E-4,4.034612144E-3
1.337894521E1,-5.880341632E-4,-8.531534113E-4,-9.846151806E-4,1.429378177E-3
1.338895221E1,-2.786207013E-3,-7.207189687E-3,-1.106854295E-3,7.805873374E-3
1.339896021E1,-3.739352338E-3,-7.689221762E-3,-1.528166234E-3,8.685745751E-3
1.340896721E1,-9.387917817E-3,-1.685182750E-2,1.091585262E-3,1.932119690E-2
1.341897521E1,-6.901056971E-3,-1.309277583E-2,-8.935350925E-4,1.482712957E-2
1.342898221E1,7.310295478E-4,4.182617180E-3,-9.143077768E-4,4.343345414E-3
1.343899021E1,1.060728915E-3,9.585951921E-4,1.411430771E-3,2.009026479E-3
1.344899721E1,-2.750786953E-3,-2.706181025E-3,5.621488672E-4,3.899519964E-3
1.345900521E1,-1.230122172E-3,-6.240195595E-3,-6.317463703E-4,6.391583927E-3
1.346901221E1,-4.540431313E-3,-1.158223022E-2,7.802618202E-4,1.246484584E-2
1.347902021E1,-1.370204496E-3,-2.750655636E-3,2.284545917E-4,3.081518829E-3
1.348902721E1,-5.792457378E-4,-3.105122596E-3,-4.418629687E-4,3.189444285E-3
1.349903521E1,-1.875406248E-3,-4.114727024E-3,1.150707481E-3,4.666074880E-3
1.350904221E1,5.603209138E-4,2.934660530E-3,-6.049824879E-5,2.988285794E-3
1.351905021E1,4.138810560E-3,3.618560033E-3,-7.196306251E-4,5.544510601E-3
1.352905721E1,3.798458492E-3,6.982399151E-3,-9.140414186E-4,8.001103457E-3
1.353906521E1,-2.538074041E-4,-3.301086836E-4,4.803899210E-4,6.357392685E-4
1.354907221E1,4.033349454E-3,7.976290770E-3,-7.408042438E-5,8.938378498E-3
1.355908021E1,4.559250083E-4,-1.762356609E-3,-4.660976119E-4,1.879099629E-3
1.356908721E1,1.376313390E-3,4.254256375E-3,-3.965892829E-4,4.488899521E-3
1.357909521E1,-1.096431515E-3,-1.553831156E-3,-8.876761422E-4,2.098695372E-3
1.358910221E1,-2.212828491E-3,-4.230041988E-3,3.754610661E-4,4.788615266E-3
1.359911021E1,-2.074344084E-3,-1.890188432E-3,2.061774721E-3,3.482331215E-3
1.360911721E1,7.070610300E-4,-5.189268850E-4,-1.132420497E-3,1.432339553E-3
1.361912521E1,-4.119651858E-3,-1.790111326E-2,1.940334449E-3,1.847122857E-2
1.362913221E1,2.100693295E-3,4.528029822E-3,1.252173679E-3,5.146251578E-3
1.363914021E1,-4.849091638E-3,-9.365681559E-3,-3.294774797E-4,1.055169352E-2
1.364914721E1,1.684441231E-3,2.436382929E-3,-1.086347969E-3,3.154909816E-3
1.365915521E1,5.496489815E-3,4.228424281E-3,-5.822114181E-4,6.959162473E-3
1.366916221E1,1.190512069E-2,2.129236236E-2,1.079068286E-3,2.441845576E-2
1.367917021E1,9.630780667E-3,1.582862251E-2,4.516274203E-4,1.853378520E-2
1.368917721E1,2.444507321E-3,4.610854201E-3,-1.643614378E-4,5.221360665E-3
1.369918521E1,-3.317241557E-3,-5.487053655E-3,-8.778222837E-4,6.471662949E-3
1.370919221E1,-7.020366844E-3,-1.302166935E-2,-6.919337902E-4,1.480973314E-2
1.371920021E1,-1.244503423E-3,-4.298751242E-3,-2.650156152E-3,5.201093985E-3
1.372920721E1,3.903362667E-4,-2.147112973E-3,-2.330405638E-3,3.192686479E-3
1.373921521E1,7.096492918E-4,-5.149294622E-3,-6.191456690E-3,8.084118577E-3
1.374922221E1,2.639375860E-3,-4.939437378E-3,-5.656960420E-3,7.960247970E-3
1.375923021E1,1.209791051E-3,1.084899530E-3,-3.015484661E-2,3.019859890E-2
1.376923721E1,5.509459227E-2,6.401965022E-2,-9.603341222E-1,9.640412626E-1
1.377924521E1,-3.889047075E-4,-2.153252810E-2,-1.636981845E0,1.637123502E0
1.378925221E1,-2.395012416E-4,-3.073002212E-2,-1.888001800E0,1.888251886E0
1.379926021E1,9.554590797E-4,-4.641151428E-2,-2.105480433E0,2.105992116E0
1.380926658E1,1.807266101E-2,-2.530409768E-2,-2.285346746E0,2.285558284E0
1.381927458E1,1.506517874E-4,-2.837525494E-2,-2.435371876E0,2.435537179E0
1.382928158E1,1.472639851E-2,-2.904637158E-2,-2.602025747E0,2.602229534E0
1.383928958E1,6.101485342E-3,-4.277949408E-2,-2.830921650E0,2.831251437E0
1.384929658E1,2.761614975E-3,-6.752026081E-2,-3.085015774E0,3.085755813E0
1.385930458E1,1.113539189E-2,-6.473885477E-2,-3.329635620E0,3.330283543E0
1.386931158E1,-6.586879492E-3,-7.022017986E-2,-3.552182436E0,3.552882537E0
1.387931958E1,1.179292705E-2,-5.559728667E-2,-3.712094784E0,3.712529840E0
1.388932658E1,-1.083089318E-2,-1.005226895E-1,-3.815280914E0,3.816620308E0
1.389933458E1,1.324301772E-2,-6.013984233E-2,-3.849657536E0,3.850150039E0
1.390934258E1,9.735368192E-3,-6.035023183E-2,-3.832209349E0,3.832696886E0
1.391934958E1,-2.831289545E-3,-5.211120844E-2,-3.822646379E0,3.823002607E0
1.392935658E1,4.515306558E-3,-5.819440261E-2,-3.842489004E0,3.842932308E0
1.393936458E1,-4.966611974E-3,-6.975918263E-2,-3.862830639E0,3.863463673E0
1.394937258E1,2.820470836E-3,-6.720601022E-2,-3.878112078E0,3.878695385E0
1.395937958E1,-8.413274772E-3,-7.016424835E-2,-3.885639429E0,3.886281974E0
1.396938658E1,4.501191899E-3,-3.056410700E-2,-3.863066673E0,3.863190203E0
1.397939458E1,-1.691989368E-3,-6.639640778E-2,-3.778530836E0,3.779114529E0
1.398940258E1,1.454636920E-2,-5.586626753E-2,-3.577836752E0,3.578302455E0
1.399940958E1,9.571317583E-3,-3.560839966E-2,-3.270124674E0,3.270332544E0
1.400941758E1,5.191216711E-3,-4.966722801E-2,-2.924629927E0,2.925056237E0
1.401942458E1,4.685748834E-3,-3.991473094E-2,-2.678130388E0,2.678431914E0
1.402943258E1,-8.871546015E-6,-4.872340336E-2,-2.582549810E0,2.583009387E0
1.403943958E1,-2.956192009E-3,-5.359192565E-2,-2.635718346E0,2.636264788E0
1.404944758E1,-9.996790439E-3,-7.503570616E-2,-2.817166567E0,2.818183415E0
1.405945458E1,-2.078711987E-2,-9.977673739E-2,-3.133844137E0,3.135501009E0
1.406946258E1,-2.566869557E-2,-1.284073144E-1,-3.525171757E0,3.527603044E0
1.407946958E1,-3.554529324E-2,-1.431244761E-1,-3.899264097E0,3.902051843E0
1.408947758E1,-2.346706018E-2,-1.118965149E-1,-4.208671570E0,4.210224212E0
1.409948458E1,1.307177637E-2,-1.450870745E-2,-4.429573059E0,4.429616107E0
1.410949258E1,3.786660358E-2,6.871415768E-3,-4.502226830E0,4.502391311E0
1.411949958E1,-9.980279021E-3,-1.116983742E-1,-4.418439388E0,4.419862301E0
1.412950758E1,1.348163746E-2,-4.798650742E-2,-4.276377678E0,4.276668154E0
1.413951458E1,-1.782536739E-3,-7.932845503E-2,-4.060506821E0,4.061282042E0
1.414952258E1,-2.156556398E-2,-1.055043936E-1,-3.768809795E0,3.770347931E0
1.415952958E1,-3.718793392E-2,-1.178273782E-1,-3.463990688E0,3.466193549E0
1.416953758E1,-4.366686940E-2,-1.275966465E-1,-3.203047037E0,3.205884905E0
1.417954458E1,-2.852519974E-2,-1.274230033E-1,-3.053211689E0,3.056002606E0
1.418955258E1,-1.875885576E-2,-9.155902267E-2,-2.999824762E0,3.001280319E0
1.419955958E1,-1.406290475E-2,-4.484956712E-2,-3.043103456E0,3.043466428E0
1.420956758E1,-2.057108562E-3,-3.593703359E-2,-3.144772053E0,3.144978055E0
1.421957458E1,-4.019591957E-3,-2.785194293E-2,-3.271773577E0,3.271894593E0
1.422958258E1,2.031109761E-3,-3.537883610E-2,-3.398741961E0,3.398926698E0
1.423958958E1,-9.105697274E-3,-4.912367463E-2,-3.527236700E0,3.527590507E0
1.424959758E1,-4.449244961E-2,-1.435551047E-1,-3.693123102E0,3.696179906E0
1.425960458E1,-6.180725619E-2,-1.859254688E-1,-4.074467659E0,4.079175789E0
1.426961258E1,-3.310424089E-2,-1.133354232E-1,-4.701441288E0,4.702923664E0
1.427961958E1,1.005707867E-2,2.177206799E-2,-5.227132320E0,5.227187338E0
1.428962758E1,4.823700525E-3,-4.813736305E-3,-5.604261398E0,5.604265542E0
1.429963458E1,-9.412493557E-3,-7.139329612E-2,-5.830203533E0,5.830648235E0
1.430964258E1,-2.089471370E-2,-6.129991636E-2,-6.007168293E0,6.007517388E0
1.431964958E1,2.619668376E-3,-3.052549064E-2,-6.163983822E0,6.164059963E0
1.432965758E1,-1.596307009E-2,-1.400892586E-1,-6.321574211E0,6.323146395E0
1.433966458E1,-2.308511175E-3,-8.221585304E-2,-6.463787079E0,6.464310340E0
1.434967258E1,2.078429237E-2,-3.258677945E-2,-6.548702717E0,6.548816775E0
1.435967958E1,8.665095083E-4,-8.949160576E-2,-6.525547028E0,6.526160702E0
1.436968758E1,-1.444959547E-2,-1.070682034E-1,-6.475191593E0,6.476092847E0
1.437969458E1,1.256180694E-4,-9.514763206E-2,-6.369025230E0,6.369735903E0
1.438970258E1,2.978071570E-2,-4.346259311E-2,-6.198272228E0,6.198496149E0
1.439970958E1,1.167628076E-2,-6.966730207E-2,-6.025706768E0,6.026120802E0
1.440971758E1,1.625185832E-2,-7.120847702E-2,-5.916260242E0,5.916711082E0
1.441972458E1,2.149908245E-2,-6.324481964E-2,-5.866750240E0,5.867130517E0
1.442973258E1,1.700473204E-2,-8.065897226E-2,-5.870503902E0,5.871082617E0
1.443973958E1,2.134914696E-2,-6.609626859E-2,-5.898814678E0,5.899223602E0
1.444974758E1,1.225551777E-2,-1.077422500E-1,-5.924861431E0,5.925853657E0
1.445975458E1,1.661777496E-2,-6.597749144E-2,-5.939871788E0,5.940261445E0
1.446976258E1,1.298682205E-2,-1.327658445E-1,-5.914549351E0,5.916053537E0
1.447976958E1,9.118313901E-3,-1.191744059E-1,-5.859998703E0,5.861217491E0
1.448977758E1,1.596822962E-2,-9.090627730E-2,-5.816440105E0,5.817172375E0
1.449978458E1,1.399669237E-2,-1.190630794E-1,-5.778987408E0,5.780230738E0
1.450979258E1,-7.303535938E-3,-1.170473397E-1,-5.806978226E0,5.808162320E0
1.451979958E1,7.551576477E-3,-9.126979858E-2,-5.905220985E0,5.905931094E0
1.452980758E1,-2.122760564E-2,-1.239811406E-1,-6.136082649E0,6.137371768E0
1.453981458E1,-6.514922716E-4,-1.343669295E-1,-6.481123924E0,6.482516658E0
1.454982258E1,-3.398787975E-2,-1.598629653E-1,-6.838026047E0,6.839978915E0
1.455982958E1,2.031184733E-2,-8.470191061E-2,-7.147415638E0,7.147946368E0
1.456983758E1,-1.568929851E-2,-1.446896046E-1,-7.505425930E0,7.506836859E0
1.457984458E1,-4.717340227E-3,-1.413020641E-1,-7.897413731E0,7.898679140E0
1.458985258E1,-9.716892615E-3,-1.389001608E-1,-8.237342834E0,8.238519566E0
1.459985958E1,2.017527819E-3,-1.501466930E-1,-8.538070679E0,8.539391021E0
1.460986758E1,1.959652081E-2,-8.619834483E-2,-8.945530891E0,8.945967645E0
1.461987458E1,-7.505619433E-4,-2.019238770E-1,-9.429347992E0,9.431509814E0
1.462988258E1,-8.460412733E-3,-1.847368926E-1,-9.832516670E0,9.834255608E0
1.463988958E1,-5.388728529E-2,-2.500037849E-1,-1.009079933E1,1.009403967E1
1.464989758E1,3.080395283E-3,-1.186649427E-1,-1.017248917E1,1.017318174E1
1.465990458E1,3.554219753E-2,-1.038002372E-1,-1.003954220E1,1.004014170E1
1.466991258E1,-1.730024442E-2,-1.854690015E-1,-9.730706215E0,9.732488967E0
1.467991958E1,1.977495477E-2,-1.178974137E-1,-9.385224342E0,9.385985660E0
1.468992758E1,2.988516353E-3,-1.627258658E-1,-9.058303833E0,9.059765834E0
1.469993458E1,1.587262377E-2,-1.649932861E-1,-8.741825104E0,8.743396415E0
1.470994258E1,-1.605015621E-2,-2.000146508E-1,-8.404844284E0,8.407239197E0
1.471994958E1,-4.081648961E-2,-2.028362751E-1,-8.058959007E0,8.061614529E0
1.472995758E1,2.141865529E-2,-5.809067562E-2,-7.726711273E0,7.726959323E0
1.473996458E1,6.852496415E-3,-8.305301517E-2,-7.409714699E0,7.410183309E0
1.474997258E1,1.951214857E-3,-1.558012664E-1,-7.088284492E0,7.089996819E0
1.475997958E1,-1.180241350E-2,-1.115839928E-1,-6.766712189E0,6.767642435E0
1.476998758E1,6.769938394E-3,-1.035942435E-1,-6.447490215E0,6.448325959E0
1.477999458E1,1.030027401E-3,-1.033889130E-1,-6.123510838E0,6.124383667E0
1.479000258E1,1.494371239E-2,-9.889323264E-2,-5.774171829E0,5.775037965E0
1.480000958E1,5.153666250E-3,-8.434145898E-2,-5.446043491E0,5.446698978E0
1.481001821E1,6.984323263E-3,-7.192313671E-2,-5.131142616E0,5.131651417E0
1.482002621E1,1.316849841E-3,-9.288567305E-2,-4.827359200E0,4.828252927E0
1.483003321E1,-1.191048883E-3,-6.871029735E-2,-4.517093658E0,4.517616367E0
1.484004121E1,1.674246043E-3,-9.467265755E-2,-4.207750320E0,4.208815567E0
1.485004821E1,-7.848951034E-3,-7.337722182E-2,-3.906908751E0,3.907605636E0
1.486005621E1,-1.200534683E-2,-7.590802014E-2,-3.610040188E0,3.610858113E0
1.487006321E1,4.865252413E-5,-4.351732880E-2,-3.308667183E0,3.308953352E0
1.488007121E1,-1.872743294E-2,-6.813105941E-2,-2.990727901E0,2.991562458E0
1.489007821E1,-1.469881972E-3,-5.537158996E-2,-2.678179502E0,2.678752251E0
1.490008621E1,-2.722366480E-3,-3.649111092E-2,-2.373054981E0,2.373337093E0
1.491009321E1,1.254531904E-3,-5.632020906E-2,-2.059014082E0,2.059784583E0
1.492010121E1,3.013549838E-3,-1.761995070E-2,-1.740208864E0,1.740300674E0
1.493010821E1,-2.329284092E-3,-3.028514609E-2,-1.427785277E0,1.428108334E0
1.494011621E1,-2.193995519E-3,-8.623792790E-3,-1.123528361E0,1.123563599E0
1.495012321E1,2.364271088E-3,-1.012448408E-2,-8.695256710E-1,8.695878262E-1
1.496013121E1,-2.067495370E-3,-1.499061193E-2,-6.842167974E-1,6.843841164E-1
1.497013821E1,4.144594073E-3,-1.155756647E-3,-4.961504936E-1,4.961691503E-1
1.498014621E1,-2.372427145E-3,-7.342546247E-3,-3.087260127E-1,3.088224285E-1
1.499015321E1,1.314453082E-3,4.812387750E-3,-1.079204679E-1,1.080357082E-1
1.500016121E1,-1.271001901E-2,-3.636034951E-2,-1.267254353E-3,3.853862391E-2
1.501016821E1,5.177368410E-3,1.377685461E-2,-1.355138607E-3,1.477982636E-2
1.502017621E1,-3.541288665E-3,-5.229061469E-3,3.404959571E-4,6.324535299E-3
1.503018321E1,1.383162569E-3,7.153803017E-4,-6.616860628E-5,1.558616679E-3
1.504019121E1,1.001797849E-3,1.365724253E-3,-5.940070841E-4,1.794894448E-3
1.505019821E1,6.308313459E-6,-2.299051732E-3,-1.409200719E-3,2.696576594E-3
1.506020621E1,7.189702010E-4,1.878382871E-3,-2.404157771E-3,3.134519891E-3
1.507021321E1,-2.682635095E-4,-1.839922741E-3,7.524869870E-4,2.005870801E-3
1.508022121E1,-6.107462104E-4,5.654443521E-4,8.385071997E-4,1.181453585E-3
1.509022821E1,6.414140575E-3,1.688233344E-3,8.121419232E-4,6.682133315E-3
1.510023621E1,3.002364654E-3,-9.368413128E-3,1.880335854E-3,1.001583851E-2
1.511024321E1,3.583781654E-4,1.742827939E-3,4.768499639E-4,1.842083066E-3
1.512025121E1,-2.586811548E-3,-5.028791726E-3,1.160217216E-3,5.772906044E-3
1.513025821E1,2.842809446E-2,-1.968709752E-2,1.900309464E-3,3.463162629E-2
1.514026621E1,-1.124661230E-2,-1.347873546E-2,9.740621317E-4,1.758156406E-2
1.515027321E1,-6.619369611E-3,2.390805073E-2,3.210199066E-5,2.480749835E-2
1.516028121E1,3.233793192E-3,-4.463935271E-3,-4.597839434E-4,5.531323330E-3
1.517028821E1,3.080444876E-4,-1.114980131E-2,-4.960028455E-4,1.116507857E-2
1.518029621E1,-4.038184416E-4,7.494190708E-3,-2.816184424E-4,7.510344376E-3
1.519030321E1,1.587426988E-3,3.760938998E-4,-1.346350182E-3,2.115190270E-3
1.520031121E1,-2.453604247E-4,-5.005888641E-3,-7.087893318E-4,5.061768973E-3
1.521031821E1,-5.644070916E-4,1.894095680E-3,-3.338661045E-3,3.879795276E-3
1.522032621E1,3.026061691E-2,-5.801051483E-2,-1.156620264E0,1.158469404E0
1.523033321E1,-4.385968298E-2,-3.156985343E-2,-1.697309613E0,1.698169677E0
1.524034121E1,1.439909637E-2,-1.215168182E-2,-2.018536091E0,2.018624023E0
1.525034821E1,1.231490634E-2,-2.692397125E-2,-2.384544849E0,2.384728642E0
1.526035621E1,-1.177391782E-2,-1.192272678E-1,-3.255539179E0,3.257742947E0
1.527036321E1,1.318496093E-2,-5.207699165E-2,-4.353678703E0,4.354010118E0
1.528037121E1,-8.690509945E-3,-9.246037155E-2,-5.354827404E0,5.355632640E0
1.529037821E1,-7.443618029E-3,-1.388164163E-1,-6.140881538E0,6.142454841E0
1.530038621E1,-2.841143636E-3,-1.251685172E-1,-6.660334587E0,6.661511243E0
1.531039321E1,1.439937623E-4,-1.345138252E-1,-6.971996784E0,6.973294282E0
1.532040121E1,2.906224458E-3,-1.180022135E-1,-7.152779579E0,7.153753468E0
1.533040821E1,6.701761857E-3,-1.104201972E-1,-7.245497704E0,7.246342147E0
1.534041621E1,2.240434056E-3,-1.193476394E-1,-7.316323280E0,7.317296989E0
1.535042321E1,-1.233291533E-2,-1.312866062E-1,-7.392499447E0,7.393675429E0
1.536043121E1,-1.487117354E-2,-1.538110822E-1,-7.524597168E0,7.526183730E0
1.537043821E1,-6.815809757E-2,-2.390404940E-1,-7.717321396E0,7.721323424E0
1.538044621E1,-7.127000391E-2,-2.460358143E-1,-8.017817497E0,8.021908155E0
1.539045321E1,-4.569726437E-2,-1.933960468E-1,-8.482171059E0,8.484498579E0
1.540046121E1,-4.670735449E-3,-6.249261647E-2,-9.165489197E0,9.165703430E0
1.541046821E1,4.816158861E-2,2.900587209E-2,-9.985435486E0,9.985593759E0
1.542047621E1,2.086125501E-2,-9.210563451E-2,-1.083797932E1,1.083839076E1
1.543048321E1,-2.890145639E-3,-2.171783447E-1,-1.165505409E1,1.165707771E1
1.544049121E1,-2.910150960E-2,-2.256442606E-1,-1.239541817E1,1.239750595E1
1.545049821E1,3.382818773E-2,-1.240654290E-1,-1.280425835E1,1.280490408E1
1.546050621E1,4.663106799E-2,-1.676893532E-1,-1.318003082E1,1.318118002E1
1.547051321E1,6.750230677E-3,-2.102424055E-1,-1.321549034E1,1.321716431E1
1.548052121E1,4.926014319E-2,-1.584673524E-1,-1.292090988E1,1.292197549E1
1.549052921E1,-2.162495255E-2,-3.166394234E-1,-1.255520248E1,1.255921325E1
1.550053621E1,-3.901347751E-3,-2.237435579E-1,-1.221255589E1,1.221460591E1
1.551054421E1,3.947355598E-2,-1.390553117E-1,-1.191133976E1,1.191221681E1
1.552055121E1,-7.573314011E-3,-3.122089803E-1,-1.158496284E1,1.158917149E1
1.553055921E1,-2.106089517E-2,-2.624805868E-1,-1.126093388E1,1.126401222E1
1.554056621E1,3.458830295E-3,-1.573975682E-1,-1.095224476E1,1.095337625E1
1.555057421E1,-1.447329763E-2,-2.437843829E-1,-1.065563774E1,1.065843591E1
1.556058121E1,-1.982385665E-2,-1.469143033E-1,-1.036924744E1,1.037030709E1
1.557058921E1,-3.631569678E-3,-1.735983789E-1,-1.006552601E1,1.006702356E1
1.558059621E1,-2.121935226E-2,-1.436769515E-1,-9.775614738E0,9.776693554E0
1.559060421E1,-5.956242792E-3,-1.536118835E-1,-9.475959778E0,9.477206645E0
1.560061121E1,5.021839403E-3,-1.312304139E-1,-9.183834076E0,9.184772995E0
1.561061921E1,1.157055330E-2,-1.369607300E-1,-8.871428490E0,8.872493199E0
1.562062621E1,-9.357099421E-3,-1.244739592E-1,-8.568389893E0,8.569299077E0
1.563063421E1,8.493802510E-3,-8.808772266E-2,-8.267058372E0,8.267532021E0
1.564064121E1,-1.823954098E-2,-2.095646262E-1,-7.940999508E0,7.943785193E0
1.565064921E1,7.582735270E-3,-9.296557307E-2,-7.636879444E0,7.637449034E0
1.566065621E1,1.340547111E-2,-1.253570765E-1,-7.338244915E0,7.339327799E0
1.567066421E1,-6.709384732E-3,-1.153086945E-1,-7.025838375E0,7.026787743E0
1.568067121E1,1.740740240E-2,-9.546255320E-2,-6.725271702E0,6.725971720E0
1.569067921E1,-5.348775536E-3,-9.993905574E-2,-6.408113956E0,6.408895451E0
1.570068621E1,1.476661209E-2,-7.086532563E-2,-6.092417240E0,6.092847263E0
1.571069421E1,-2.431283006E-3,-9.767244011E-2,-5.773463249E0,5.774289888E0
1.572070121E1,5.527839996E-3,-6.702131778E-2,-5.445192814E0,5.445608065E0
1.573070921E1,-6.867307238E-3,-8.852004260E-2,-5.093245029E0,5.094018835E0
1.574071621E1,1.895416901E-2,-3.824887797E-2,-4.741705894E0,4.741898041E0
1.575072421E1,-1.394013036E-2,-9.826055169E-2,-4.385341167E0,4.386464022E0
1.576073121E1,1.083908137E-5,-4.448546842E-2,-4.019547939E0,4.019794098E0
1.577073921E1,-3.890159307E-3,-5.819702148E-2,-3.671791077E0,3.672254313E0
1.578074621E1,8.223041659E-4,-4.857688397E-2,-3.318676710E0,3.319032313E0
1.579075421E1,-1.355743408E-2,-7.289261371E-2,-3.016904116E0,3.017815034E0
1.580076121E1,-5.660628900E-3,-5.914350972E-2,-2.783669472E0,2.784303454E0
1.581076946E1,-5.618817173E-3,-4.375363141E-2,-2.560849667E0,2.561229581E0
1.582077646E1,9.765801951E-5,-3.933544829E-2,-2.342180014E0,2.342510300E0
1.583078446E1,-1.926877070E-3,-3.848510236E-2,-2.114488602E0,2.114839678E0
1.584079146E1,-7.484894246E-3,-5.676237494E-2,-1.884244561E0,1.885114203E0
1.585079946E1,-2.586808288E-3,-3.152972460E-2,-1.669028878E0,1.669328671E0
1.586080646E1,5.095878616E-3,-1.323141158E-2,-1.443252206E0,1.443321852E0
1.587081446E1,-4.395627417E-3,-3.866513073E-2,-1.204597235E0,1.205225627E0
1.588082246E1,-1.241911901E-3,-2.255753614E-2,-9.735409021E-1,9.738029949E-1
1.589082946E1,3.840198275E-3,-7.163398899E-3,-7.482923269E-1,7.483364671E-1
1.590083746E1,-1.553235576E-3,-1.409800351E-2,-5.123948455E-1,5.125911079E-1
1.591084446E1,-2.310904907E-3,-1.046145801E-2,-2.645954490E-1,2.648122618E-1
1.592085246E1,4.289553035E-4,1.205077395E-2,-6.383874454E-3,1.364400998E-2
1.593085946E1,9.725251235E-3,2.244029939E-2,1.466591377E-3,2.450098852E-2
1.594086746E1,-7.606334053E-3,-1.614570804E-2,1.326242927E-3,1.789690270E-2
1.595087446E1,3.967231140E-3,6.887970958E-3,-8.556847461E-4,7.994702197E-3
1.596088246E1,1.397547079E-3,3.192843869E-4,-1.410687575E-3,2.011248317E-3
1.597088946E1,-1.124200178E-3,-2.772911917E-3,1.475280151E-4,2.995768859E-3
1.598089746E1,1.920059207E-3,3.696438856E-3,3.147744574E-4,4.177244371E-3
1.599090446E1,-8.986305911E-4,-1.328413142E-3,2.162372693E-4,1.618325360E-3
1.600091246E1,1.903547556E-3,6.785448641E-4,-7.960300427E-4,2.171999139E-3
1.601091946E1,-7.518101484E-5,-4.787326790E-3,8.830931038E-4,4.868675735E-3
1.602092746E1,-1.258956268E-3,5.754805170E-4,-1.150597818E-4,1.389023925E-3
1.603093446E1,-3.313771449E-4,3.932395019E-3,6.599202752E-4,4.001129361E-3
1.604094246E1,-6.205169484E-6,-3.889575135E-3,-2.452882472E-4,3.897306706E-3
1.605094946E1,1.502741827E-3,3.078851849E-3,-1.940390328E-3,3.937343817E-3
